Time (s),X position (m),Y position (m),Z position (m),Rocket axis vector X,Rocket axis vector Y,Rocket axis vector Z,Velocity Vx  (m/s),Velocity Vy  (m/s),Velocity Vz  (m/s),angular velocity omegaX (rad/s),angular velocity omegaY (rad/s),angular velocity omegaZ (rad/s),Acceleration Ax (m/s2),Acceleration Ay (m/s2),Acceleration Az (m/s2),Angular Acceleration X (rad/s2),Angular Acceleration Y (rad/s2),Angular Acceleration Z (rad/s2),Angle of attack alpha (rad),alpha at CP (rad),Moment arm (m),Force X (N),Force Y (N),Force Z (N),Torque X (Nm),Torque Y (Nm),Torque Z (Nm),Thrust (N),Mass (kg),C.O.M distance from nose (m),Ixx (kg m2),Iyy (kg m2),Izz (kg m2),Windspeed X (m/s),Windspeed Y (m/s),atmospheric density (kg/m3),atmospheric temperature (K),
0,0,0,0,0.075479,0.043578,0.99619,0,0,0,0,0,0,0,0,0,0,0,0,0,0,0.46022,0,0,0,0,0,0,0,5.115,0.62491,1.0972,1.0972,0.0065925,2.4676,1.9145,0.15149,141.94,
0.00027183,0,0,0,0.075479,0.043578,0.99619,0,0,0,0,0,0,0,0,0,0,0,0,0,0,0.46022,0,0,0,0,0,0,9.7433,5.115,0.62492,1.0972,1.0972,0.0065925,2.4676,1.9145,0.15149,141.94,
0.00054367,0,0,0,0.075479,0.043578,0.99619,0,0,0,0,0,0,0,0,0,0,0,0,0,0,0.46021,0,0,0,0,0,0,19.4867,5.1149,0.62492,1.0972,1.0972,0.0065925,2.4676,1.9145,0.15149,141.94,
0.0008155,0,0,0,0.075479,0.043578,0.99619,0,0,0,0,0,0,0,0,0,0,0,0,0,0,0.46021,0,0,0,0,0,0,29.23,5.1149,0.62493,1.0972,1.0972,0.0065925,2.4676,1.9145,0.15149,141.94,
0.0010873,0,0,0,0.075479,0.043578,0.99619,0,0,0,0,0,0,0,0,0,0,0,0,0,0,0.4602,0,0,0,0,0,0,38.9734,5.1148,0.62493,1.0972,1.0972,0.0065924,2.4676,1.9145,0.15149,141.94,
0.0011505,0,0,0,0.075479,0.043578,0.99619,0,0,0,0,0,0,0,0,0,0,0,0,0,0,0.4602,0,0,0,0,0,0,41.2362,5.1148,0.62493,1.0972,1.0972,0.0065924,2.4676,1.9145,0.15149,141.94,
0.0012136,0,0,0,0.075479,0.043578,0.99619,0,0,0,0,0,0,0,0,0,0,0,0,0,0,0.4602,0,0,0,0,0,0,43.499,5.1148,0.62493,1.0972,1.0972,0.0065924,2.4676,1.9145,0.15149,141.94,
0.0012767,0,0,0,0.075479,0.043578,0.99619,0,0,0,0,0,0,0,0,0,0,0,0,0,0,0.4602,0,0,0,0,0,0,45.7618,5.1148,0.62493,1.0972,1.0972,0.0065924,2.4676,1.9145,0.15149,141.94,
0.0013399,0,0,0,0.075479,0.043578,0.99619,0,0,0,0,0,0,0,0,0,0,0,0,0,0,0.4602,0,0,0,0,0,0,48.0246,5.1148,0.62493,1.0972,1.0972,0.0065924,2.4676,1.9145,0.15149,141.94,
0.0013892,3.889e-10,2.2453e-10,-9.9699e-11,0.075479,0.043578,0.99619,1.9504e-05,1.1261e-05,-3.4368e-06,0,0,0,0,0,0,-0.010771,0.013882,0.00020881,1.4843,1.4843,0.4602,0,0,0,-0.011818,0.015232,0.0002291,49.7917,5.1148,0.62493,1.0972,1.0972,0.0065924,2.4676,1.9145,0.15149,141.94,
0.0014385,2.2175e-09,1.2803e-09,-2.327e-10,0.075479,0.043578,0.99619,5.8506e-05,3.3778e-05,-1.4157e-06,0,0,0,0.75441,0.43427,0.23268,-0.010771,0.013883,0.00020881,1.4843,1.4843,0.4602,3.8586,2.2212,1.1901,-0.011818,0.015232,0.00022911,51.5587,5.1148,0.62494,1.0972,1.0972,0.0065924,2.4676,1.9145,0.15149,141.94,
0.0014878,6.0621e-09,3.5e-09,1.1328e-10,0.075479,0.043578,0.99619,9.887e-05,5.7083e-05,1.7525e-05,0,0,0,0.78049,0.44933,0.57687,-0.010771,0.013883,0.00020882,1.4843,1.4843,0.4602,3.992,2.2982,2.9505,-0.011818,0.015232,0.00022911,53.3258,5.1147,0.62494,1.0972,1.0972,0.0065924,2.4676,1.9145,0.15149,141.94,
0.0015371,1.1944e-08,6.896e-09,1.8014e-09,0.075479,0.043578,0.99619,0.0001373,7.9273e-05,5.5467e-05,0,0,0,0.80657,0.46438,0.92106,-0.010772,0.013884,0.00020882,1.4843,1.4843,0.4602,4.1254,2.3752,4.711,-0.011819,0.015233,0.00022911,55.0929,5.1147,0.62494,1.0972,1.0972,0.0065924,2.4676,1.9145,0.15149,141.94,
0.0015864,1.9712e-08,1.1381e-08,5.8041e-09,0.075479,0.043578,0.99619,0.00017803,0.00010279,0.00010974,0,0,0,0.83265,0.47944,1.2652,-0.010772,0.013884,0.00020882,1.4843,1.4843,0.46019,4.2588,2.4522,6.4714,-0.011819,0.015233,0.00022912,56.8599,5.1147,0.62494,1.0972,1.0972,0.0065924,2.4676,1.9145,0.15149,141.94,
0.0016357,2.9519e-08,1.7043e-08,1.2901e-08,0.075479,0.043578,0.99619,0.00022004,0.00012704,0.00018099,0,0,0,0.85872,0.4945,1.6094,-0.010772,0.013884,0.00020883,1.4843,1.4843,0.46019,4.3921,2.5292,8.2318,-0.011819,0.015234,0.00022912,58.627,5.1147,0.62494,1.0972,1.0972,0.0065924,2.4676,1.9145,0.15149,141.94,
0.001685,4.1429e-08,2.3919e-08,2.3928e-08,0.075479,0.043578,0.99619,0.00026334,0.00015204,0.0002692,0,0,0,0.8848,0.50955,1.9536,-0.010773,0.013885,0.00020883,1.4843,1.4843,0.46019,4.5255,2.6062,9.9922,-0.011819,0.015234,0.00022912,60.3941,5.1147,0.62494,1.0972,1.0972,0.0065924,2.4676,1.9145,0.15149,141.94,
0.0017343,5.5505e-08,3.2046e-08,3.9723e-08,0.075479,0.043578,0.99619,0.00030792,0.00017778,0.00037438,0,0,0,0.91088,0.52461,2.2978,-0.010773,0.013885,0.00020883,1.4842,1.4842,0.46019,4.6589,2.6832,11.7527,-0.01182,0.015235,0.00022913,62.1611,5.1147,0.62494,1.0972,1.0972,0.0065924,2.4676,1.9145,0.15149,141.94,
0.0019808,1.606e-07,9.2721e-08,2.1948e-07,0.075479,0.043578,0.99619,0.00055011,0.00031761,0.0011548,0,0,0,1.0413,0.59989,4.0188,-0.010774,0.013888,0.00020885,1.484,1.484,0.46019,5.3258,3.0682,20.5548,-0.011821,0.015237,0.00022914,70.9965,5.1147,0.62494,1.0972,1.0972,0.0065924,2.4676,1.9145,0.15149,141.94,
0.0022273,3.2935e-07,1.9015e-07,6.4391e-07,0.075479,0.043578,0.99619,0.00082446,0.000476,0.0023595,0,0,0,1.1717,0.67517,5.7398,-0.010776,0.01389,0.00020887,1.4836,1.4836,0.46018,5.9926,3.4533,29.3569,-0.011823,0.015239,0.00022916,79.8318,5.1146,0.62495,1.0972,1.0972,0.0065924,2.4676,1.9145,0.15149,141.94,
0.0024738,5.697e-07,3.2891e-07,1.4176e-06,0.075479,0.043578,0.99619,0.0011309,0.00065295,0.0039884,0,0,0,1.3021,0.75046,7.4608,-0.010778,0.013893,0.0002089,1.4831,1.4831,0.46018,6.6595,3.8383,38.159,-0.011825,0.015242,0.00022919,88.6671,5.1146,0.62495,1.0971,1.0971,0.0065924,2.4676,1.9145,0.15149,141.94,
0.0027203,8.8955e-07,5.1358e-07,2.6451e-06,0.075479,0.043578,0.99619,0.0014696,0.00084846,0.0060416,0,0,0,1.4325,0.82574,9.1819,-0.01078,0.013895,0.00020892,1.4824,1.4824,0.46018,7.3264,4.2233,46.9611,-0.011827,0.015245,0.00022922,97.5024,5.1145,0.62496,1.0971,1.0971,0.0065923,2.4676,1.9145,0.15149,141.94,
0.0039528,3.9588e-06,2.2856e-06,1.925e-05,0.075479,0.043578,0.99619,0.003645,0.0021044,0.022672,0,0,0,2.0845,1.2022,17.7876,-0.010792,0.013912,0.00020909,1.4771,1.4771,0.46016,10.6608,6.1484,90.9717,-0.011839,0.015263,0.00022939,141.6791,5.1143,0.62498,1.0971,1.0971,0.0065923,2.4676,1.9145,0.15149,141.94,
0.0051853,1.0205e-05,5.8916e-06,6.2889e-05,0.075479,0.043578,0.99619,0.0066241,0.0038244,0.04991,0,0,0,2.7366,1.5787,26.394,-0.010808,0.013934,0.00020934,1.4684,1.4684,0.46014,13.9951,8.0735,134.9822,-0.011856,0.015286,0.00022966,185.8557,5.1141,0.625,1.097,1.097,0.0065922,2.4676,1.9145,0.15149,141.94,
0.0064178,2.0618e-05,1.1904e-05,0.00014664,0.075479,0.043578,0.99619,0.010407,0.0060086,0.087757,0,0,0,3.3887,1.9552,35.0011,-0.010828,0.013962,0.00020969,1.4564,1.4564,0.46012,17.3295,9.9985,178.9928,-0.011879,0.015316,0.00023002,230.0323,5.1139,0.62502,1.097,1.097,0.0065921,2.4676,1.9145,0.15149,141.94,
0.0076503,3.6189e-05,2.0894e-05,0.00028357,0.075479,0.043578,0.99619,0.014994,0.0086569,0.13621,0,0,0,4.0409,2.3317,43.609,-0.010856,0.013998,0.00021016,1.441,1.441,0.4601,20.6638,11.9236,223.0033,-0.011908,0.015355,0.00023053,274.209,5.1137,0.62504,1.0969,1.0969,0.0065921,2.4676,1.9145,0.15149,141.94,
0.0083622,4.792e-05,2.7667e-05,0.00039201,0.075479,0.043578,0.99619,0.01801,0.010398,0.16904,0,0,0,4.4176,2.5492,48.581,-0.010875,0.014024,0.00021049,1.4306,1.4306,0.46009,22.5896,13.0355,248.4232,-0.011928,0.015383,0.00023089,299.7249,5.1136,0.62505,1.0969,1.0969,0.006592,2.4676,1.9145,0.15149,141.94,
0.009074,6.1894e-05,3.5734e-05,0.00052508,0.075479,0.043578,0.99619,0.021294,0.012294,0.2054,0,0,0,4.7943,2.7667,53.5534,-0.010897,0.014053,0.00021089,1.4192,1.4192,0.46007,24.5155,14.1474,273.8432,-0.011952,0.015414,0.00023132,325.2407,5.1135,0.62506,1.0969,1.0969,0.006592,2.4676,1.9145,0.15149,141.94,
0.0097859,7.8301e-05,4.5207e-05,0.00068529,0.075479,0.043578,0.99619,0.024846,0.014345,0.24531,0,0,0,5.171,2.9842,58.5259,-0.010923,0.014087,0.00021135,1.4067,1.4067,0.46006,26.4413,15.2592,299.2631,-0.01198,0.015451,0.00023182,350.7566,5.1133,0.62507,1.0968,1.0968,0.006592,2.4676,1.9145,0.15149,141.94,
0.010498,9.7332e-05,5.6195e-05,0.00087517,0.075479,0.043578,0.99619,0.028667,0.016551,0.28875,0,0,0,5.5478,3.2017,63.4987,-0.010952,0.014126,0.00021189,1.3931,1.3931,0.46005,28.3671,16.3711,324.683,-0.012012,0.015493,0.0002324,376.2725,5.1132,0.62508,1.0968,1.0968,0.0065919,2.4676,1.9145,0.15149,141.94,
0.010737,0.00010434,6.024e-05,0.00094597,0.075479,0.043578,0.99619,0.030009,0.017325,0.30412,0,0,0,5.6742,3.2747,65.1671,-0.010963,0.01414,0.00021209,1.3883,1.3883,0.46005,29.0132,16.7441,333.2114,-0.012024,0.015509,0.00023262,384.833,5.1132,0.62509,1.0968,1.0968,0.0065919,2.4676,1.9145,0.15149,141.94,
0.010975,0.00011167,6.4472e-05,0.0010205,0.075479,0.043578,0.99619,0.031381,0.018118,0.31989,0,0,0,5.8006,3.3477,66.8356,-0.010974,0.014155,0.00021229,1.3834,1.3834,0.46004,29.6593,17.1171,341.7397,-0.012036,0.015525,0.00023284,393.3935,5.1131,0.62509,1.0968,1.0968,0.0065919,2.4676,1.9145,0.15149,141.94,
0.011214,0.00011933,6.8896e-05,0.0010988,0.075479,0.043578,0.99619,0.032783,0.018927,0.33605,0,0,0,5.927,3.4207,68.504,-0.010986,0.01417,0.00021251,1.3784,1.3784,0.46004,30.3054,17.4901,350.268,-0.012049,0.015542,0.00023308,401.9541,5.1131,0.62509,1.0968,1.0968,0.0065919,2.4676,1.9145,0.15149,141.94,
0.011453,0.00012733,7.3514e-05,0.001181,0.075479,0.043578,0.99619,0.034215,0.019754,0.35262,0,0,0,6.0534,3.4936,70.1725,-0.010999,0.014187,0.00021274,1.3733,1.3733,0.46004,30.9515,17.8632,358.7963,-0.012063,0.015559,0.00023333,410.5146,5.1131,0.6251,1.0968,1.0968,0.0065919,2.4676,1.9145,0.15149,141.94,
0.011562,0.0001311,7.5689e-05,0.0012199,0.075479,0.043578,0.99619,0.034879,0.020138,0.36031,0,0,0,6.1111,3.5269,70.9341,-0.011004,0.014194,0.00021285,1.3709,1.3709,0.46003,31.2465,18.0334,362.6891,-0.012069,0.015568,0.00023345,414.422,5.113,0.6251,1.0968,1.0968,0.0065919,2.4676,1.9145,0.15149,141.94,
0.011671,0.00013494,7.7905e-05,0.0012596,0.075479,0.043578,0.99619,0.03555,0.020525,0.36809,0,0,0,6.1688,3.5603,71.6957,-0.01101,0.014202,0.00021296,1.3685,1.3685,0.46003,31.5414,18.2037,366.5818,-0.012076,0.015576,0.00023357,418.3294,5.113,0.6251,1.0968,1.0968,0.0065919,2.4676,1.9145,0.15149,141.94,
0.01178,0.00013885,8.0164e-05,0.0013001,0.075479,0.043578,0.99619,0.036226,0.020915,0.37595,0,0,0,6.2265,3.5936,72.4573,-0.011016,0.01421,0.00021307,1.3661,1.3661,0.46003,31.8363,18.3739,370.4745,-0.012082,0.015585,0.00023369,422.2368,5.113,0.6251,1.0968,1.0968,0.0065919,2.4676,1.9145,0.15149,141.94,
0.011889,0.00014283,8.2465e-05,0.0013416,0.075479,0.043578,0.99619,0.036909,0.021309,0.38389,0,0,0,6.2842,3.6269,73.2189,-0.011023,0.014218,0.00021319,1.3636,1.3636,0.46003,32.1312,18.5442,374.3672,-0.012089,0.015594,0.00023381,426.1442,5.113,0.6251,1.0967,1.0967,0.0065918,2.4676,1.9145,0.15149,141.94,
0.011998,0.0001469,8.481e-05,0.0013838,0.075479,0.043578,0.99619,0.037598,0.021707,0.39192,0,0,0,6.3419,3.6602,73.9805,-0.011029,0.014227,0.00021331,1.3612,1.3612,0.46003,32.4261,18.7145,378.26,-0.012096,0.015603,0.00023394,430.0517,5.113,0.62511,1.0967,1.0967,0.0065918,2.4676,1.9145,0.15149,141.94,
0.012107,0.00015103,8.7198e-05,0.001427,0.075479,0.043578,0.99619,0.038293,0.022109,0.40003,0,0,0,6.3996,3.6935,74.7421,-0.011035,0.014235,0.00021343,1.3587,1.3587,0.46002,32.721,18.8847,382.1527,-0.012103,0.015612,0.00023407,433.9591,5.113,0.62511,1.0967,1.0967,0.0065918,2.4676,1.9145,0.15149,141.94,
0.012216,0.00015524,8.9631e-05,0.0014711,0.075479,0.043578,0.99619,0.038995,0.022514,0.40822,0,0,0,6.4573,3.7268,75.5037,-0.011042,0.014244,0.00021355,1.3562,1.3562,0.46002,33.0159,19.055,386.0454,-0.01211,0.015622,0.00023421,437.8665,5.1129,0.62511,1.0967,1.0967,0.0065918,2.4676,1.9145,0.15149,141.94,
0.012325,0.00015953,9.2107e-05,0.001516,0.075479,0.043578,0.99619,0.039703,0.022922,0.41649,0,0,0,6.515,3.7601,76.2653,-0.011049,0.014253,0.00021367,1.3536,1.3536,0.46002,33.3108,19.2253,389.9381,-0.012118,0.015631,0.00023434,441.7739,5.1129,0.62511,1.0967,1.0967,0.0065918,2.4676,1.9145,0.15149,141.94,
0.01287,0.00018215,0.00010516,0.0017544,0.075479,0.043578,0.99619,0.043264,0.024978,0.45814,0,0,0,6.5304,3.769,76.4684,-0.011084,0.014298,0.00021433,1.3409,1.3409,0.46,33.3882,19.2699,390.9623,-0.012156,0.015681,0.00023505,442.8002,5.1127,0.62513,1.0967,1.0967,0.0065918,2.4676,1.9145,0.15149,141.94,
0.013415,0.0002067,0.00011934,0.0020155,0.075479,0.043578,0.99619,0.04683,0.027037,0.49987,0,0,0,6.5352,3.7718,76.5327,-0.011121,0.014346,0.00021501,1.3283,1.3283,0.45999,33.4117,19.2835,391.2768,-0.012195,0.015733,0.00023579,443.1142,5.1125,0.62515,1.0966,1.0966,0.0065917,2.4676,1.9145,0.15149,141.94,
0.01396,0.0002332,0.00013464,0.0022993,0.075479,0.043578,0.99619,0.050399,0.029098,0.54163,0,0,0,6.5401,3.7746,76.597,-0.011159,0.014397,0.00021573,1.3157,1.3157,0.45997,33.4353,19.2971,391.5913,-0.012237,0.015788,0.00023657,443.4281,5.1124,0.62516,1.0966,1.0966,0.0065916,2.4676,1.9145,0.15149,141.94,
0.014506,0.00026164,0.00015106,0.0026059,0.075479,0.043578,0.99619,0.053971,0.03116,0.58342,0,0,0,6.5449,3.7774,76.6613,-0.0112,0.01445,0.00021649,1.3032,1.3032,0.45995,33.4589,19.3107,391.9059,-0.012281,0.015845,0.00023739,443.742,5.1122,0.62518,1.0965,1.0965,0.0065916,2.4676,1.9145,0.15149,141.94,
0.014982,0.00028812,0.00016635,0.0028929,0.075479,0.043578,0.99619,0.057098,0.032965,0.62001,0,0,0,6.5492,3.7798,76.7176,-0.011237,0.014498,0.00021718,1.2923,1.2923,0.45993,33.4795,19.3225,392.181,-0.012321,0.015897,0.00023814,444.0167,5.112,0.6252,1.0965,1.0965,0.0065915,2.4676,1.9145,0.15149,141.94,
0.015459,0.0003161,0.0001825,0.0031972,0.075479,0.043578,0.99619,0.060227,0.034772,0.65663,0,0,0,6.5534,3.7823,76.7738,-0.011275,0.014548,0.0002179,1.2814,1.2814,0.45992,33.5001,19.3344,392.4562,-0.012363,0.015951,0.00023891,444.2913,5.1118,0.62521,1.0965,1.0965,0.0065915,2.4676,1.9145,0.15149,141.94,
0.015936,0.00034556,0.00019951,0.0035191,0.075479,0.043578,0.99619,0.063358,0.03658,0.69328,0,0,0,6.5577,3.7847,76.8301,-0.011315,0.014599,0.00021864,1.2707,1.2707,0.4599,33.5207,19.3463,392.7313,-0.012406,0.016007,0.00023972,444.5659,5.1117,0.62523,1.0964,1.0964,0.0065914,2.4676,1.9145,0.15149,141.94,
0.016413,0.00037652,0.00021739,0.0038584,0.075479,0.043578,0.99619,0.066492,0.038389,0.72996,0,0,0,6.5619,3.7872,76.8864,-0.011356,0.014653,0.0002194,1.26,1.26,0.45989,33.5413,19.3581,393.0065,-0.01245,0.016065,0.00024055,444.8406,5.1115,0.62524,1.0964,1.0964,0.0065914,2.4676,1.9145,0.15149,141.94,
0.018797,0.00055376,0.00031971,0.0058178,0.075479,0.043578,0.99619,0.08219,0.047453,0.91376,0,0,0,6.5831,3.7994,77.1678,-0.01158,0.014945,0.00022362,1.2076,1.2076,0.45981,33.6442,19.4174,394.3823,-0.012694,0.016382,0.00024513,446.2138,5.1107,0.62532,1.0962,1.0962,0.0065911,2.4676,1.9145,0.15149,141.94,
0.021181,0.00076849,0.00044369,0.0082163,0.075479,0.043578,0.99619,0.097943,0.056547,1.0983,0,0,0,6.6043,3.8116,77.4494,-0.011836,0.015278,0.00022844,1.1571,1.1571,0.45973,33.7471,19.4767,395.7581,-0.012972,0.016745,0.00025037,447.587,5.1099,0.6254,1.096,1.096,0.0065908,2.4676,1.9145,0.15149,141.94,
0.023566,0.0010208,0.00058939,0.011055,0.075479,0.043578,0.99619,0.11375,0.065672,1.2835,0,0,0,6.6254,3.8237,77.731,-0.012122,0.015651,0.00023385,1.1085,1.1085,0.45965,33.8498,19.5358,397.1339,-0.013284,0.01715,0.00025625,448.9602,5.1091,0.62548,1.0958,1.0958,0.0065906,2.4676,1.9145,0.15149,141.94,
0.02595,0.0013109,0.00075688,0.014337,0.075479,0.043578,0.99619,0.12961,0.074829,1.4694,0,0,0,6.6465,3.8359,78.0123,-0.012438,0.016061,0.0002398,1.0622,1.0622,0.45958,33.9523,19.5948,398.5074,-0.013626,0.017596,0.00026272,450.331,5.1083,0.62556,1.0956,1.0956,0.0065903,2.4676,1.9145,0.15149,141.94,
0.029918,0.0018777,0.0010841,0.020783,0.075479,0.043578,0.99619,0.15612,0.090134,1.7803,0,0,0,6.6816,3.8561,78.4803,-0.013021,0.01682,0.00025083,0.98979,0.98979,0.45944,34.1224,19.6926,400.7897,-0.014261,0.018421,0.00027472,452.6088,5.1069,0.62569,1.0952,1.0952,0.0065899,2.4676,1.9145,0.15149,141.9401,
0.033886,0.00255,0.0014723,0.028467,0.075479,0.043578,0.99619,0.18278,0.10553,2.0932,0,0,0,6.7167,3.8763,78.9484,-0.013672,0.017666,0.00026314,0.92344,0.92344,0.45931,34.2923,19.7903,403.072,-0.01497,0.019342,0.00028811,454.8865,5.1055,0.62582,1.0949,1.0949,0.0065894,2.4676,1.9145,0.15149,141.9401,
0.037853,0.0033284,0.0019216,0.037397,0.075479,0.043578,0.99619,0.20958,0.121,2.408,0,0,0,6.7518,3.8964,79.4166,-0.014384,0.018591,0.00027659,0.86289,0.86289,0.45918,34.4618,19.8878,405.3524,-0.015744,0.020349,0.00030274,457.1625,5.1041,0.62595,1.0946,1.0946,0.006589,2.4676,1.9145,0.15149,141.9401,
0.041821,0.0042134,0.0024326,0.047579,0.075479,0.043578,0.99619,0.23654,0.13656,2.7248,0,0,0,6.7867,3.9165,79.8839,-0.015149,0.019586,0.00029105,0.80781,0.80781,0.45905,34.6307,19.9848,407.6261,-0.016576,0.021431,0.00031847,459.4314,5.1027,0.62609,1.0942,1.0942,0.0065885,2.4676,1.9145,0.15149,141.9401,
0.048114,0.005837,0.00337,0.066315,0.075479,0.043578,0.99619,0.27959,0.16142,3.2311,0,0,0,6.8421,3.9483,80.6255,-0.016459,0.021289,0.00031577,0.73064,0.73064,0.45883,34.8981,20.1385,411.2316,-0.018,0.023283,0.00034534,463.0297,5.1005,0.6263,1.0937,1.0937,0.0065878,2.4676,1.9145,0.15149,141.9402,
0.054406,0.0077327,0.0044645,0.088252,0.075479,0.043578,0.99619,0.32301,0.18649,3.7424,0,0,0,6.8973,3.98,81.3658,-0.01787,0.023125,0.00034235,0.66441,0.66441,0.45862,35.1643,20.2913,414.825,-0.019533,0.025277,0.00037423,466.6155,5.0983,0.62652,1.0931,1.0931,0.0065871,2.4676,1.9145,0.15149,141.9403,
0.060698,0.0099028,0.0057174,0.11342,0.075479,0.043578,0.99619,0.36681,0.21178,4.2585,0,0,0,6.9525,4.0117,82.1062,-0.019365,0.025072,0.00037049,0.60742,0.60742,0.4584,35.43,20.4438,418.4151,-0.021157,0.027392,0.00040478,470.1983,5.096,0.62673,1.0925,1.0925,0.0065864,2.4676,1.9145,0.15149,141.9403,
0.066991,0.01235,0.0071301,0.14185,0.075479,0.043578,0.99619,0.41098,0.23728,4.7795,0,0,0,7.0075,4.0433,82.845,-0.020934,0.027116,0.00039994,0.55817,0.55817,0.45818,35.6944,20.5955,421.9912,-0.022859,0.029609,0.00043672,473.7667,5.0937,0.62695,1.092,1.092,0.0065856,2.4676,1.9145,0.15148,141.9404,
0.07603,0.016354,0.0094417,0.18847,0.075479,0.043578,0.99619,0.47508,0.27429,5.5365,0,0,0,7.0864,4.0886,83.9057,-0.023296,0.030195,0.00044418,0.49846,0.49846,0.45786,36.073,20.8127,427.1181,-0.025419,0.032948,0.00048466,478.8829,5.0905,0.62727,1.0911,1.0911,0.0065846,2.4676,1.9145,0.15148,141.9406,
0.085068,0.02094,0.01209,0.24197,0.075479,0.043578,0.99619,0.53995,0.31174,6.3037,0,0,0,7.1651,4.1337,84.9643,-0.025767,0.033421,0.00049032,0.4491,0.4491,0.45754,36.4497,21.0288,432.2243,-0.028094,0.03644,0.0005346,483.9781,5.0871,0.62759,1.0903,1.0903,0.0065835,2.4676,1.9145,0.15148,141.9407,
0.094107,0.026117,0.015079,0.30245,0.075479,0.043578,0.99619,0.60559,0.34964,7.0809,0,0,0,7.2435,4.1787,86.0202,-0.028334,0.036775,0.00053808,0.4078,0.4078,0.45722,36.8242,21.2435,437.3059,-0.030869,0.040065,0.00058622,489.0488,5.0838,0.62792,1.0895,1.0895,0.0065824,2.4676,1.9145,0.15148,141.9409,
0.10315,0.03189,0.018412,0.37001,0.075479,0.043578,0.99619,0.67201,0.38798,7.8682,0,0,0,7.3217,4.2235,87.0742,-0.030984,0.040242,0.00058724,0.37286,0.37286,0.45689,37.197,21.4571,442.3682,-0.03373,0.043808,0.00063928,494.1002,5.0804,0.62825,1.0886,1.0886,0.0065813,2.4676,1.9145,0.15148,141.9411,
0.11363,0.039341,0.022713,0.45731,0.075479,0.043578,0.99619,0.74997,0.433,8.7938,0,0,0,7.4121,4.2754,88.2933,-0.034153,0.044391,0.00064581,0.33863,0.33863,0.4565,37.6267,21.7034,448.2103,-0.037145,0.048281,0.00070239,499.9297,5.0764,0.62863,1.0876,1.0876,0.00658,2.4676,1.9145,0.15147,141.9414,
0.12411,0.047614,0.02749,0.55438,0.075479,0.043578,0.99619,0.82898,0.47861,9.733,0,0,0,7.5022,4.327,89.5089,-0.037416,0.048669,0.00070587,0.30972,0.30972,0.45611,38.0537,21.9481,454.0205,-0.040656,0.052884,0.00076701,505.7274,5.0723,0.62902,1.0866,1.0866,0.0065787,2.4676,1.9145,0.15147,141.9417,
0.13459,0.056721,0.032748,0.66137,0.075479,0.043578,0.99619,0.90902,0.52482,10.6858,0,0,0,7.5918,4.3784,90.7198,-0.040766,0.053068,0.00076732,0.28502,0.28502,0.45571,38.4775,22.1908,459.7923,-0.044255,0.05761,0.00083298,511.4867,5.0683,0.62942,1.0856,1.0856,0.0065774,2.4676,1.9145,0.15147,141.942,
0.14507,0.066672,0.038493,0.77842,0.075479,0.043578,0.99619,0.99009,0.57163,11.6521,0,0,0,7.6811,4.4295,91.9259,-0.0442,0.057582,0.00083005,0.26371,0.26371,0.45531,38.8981,22.4316,465.5258,-0.047937,0.06245,0.00090022,517.2077,5.0641,0.62982,1.0845,1.0845,0.0065761,2.4676,1.9145,0.15146,141.9423,
0.15773,0.079837,0.046094,0.93346,0.075479,0.043578,0.99619,1.0894,0.62898,12.8377,0,0,0,7.7884,4.491,93.3773,-0.048456,0.063184,0.00090745,0.24159,0.24159,0.45482,39.4022,22.7202,472.405,-0.052491,0.068445,0.00098301,524.0721,5.0591,0.63031,1.0833,1.0833,0.0065745,2.4676,1.9145,0.15146,141.9428,
0.17039,0.094269,0.054426,1.1036,0.075479,0.043578,0.99619,1.1903,0.68719,14.043,0,0,0,7.895,4.552,94.8212,-0.052824,0.068943,0.00098653,0.22265,0.22265,0.45432,39.9013,23.0059,479.225,-0.057154,0.074594,0.0010674,530.8776,5.054,0.63081,1.082,1.082,0.0065728,2.4676,1.9145,0.15145,141.9433,
0.18306,0.10999,0.063502,1.2892,0.075479,0.043578,0.99619,1.2926,0.74627,15.268,0,0,0,8.001,4.6127,96.2568,-0.057303,0.074854,0.0010672,0.20627,0.20627,0.45381,40.3954,23.2886,485.9828,-0.061924,0.080892,0.0011533,537.621,5.0488,0.63132,1.0807,1.0807,0.0065711,2.4676,1.9145,0.15145,141.9439,
0.19572,0.12701,0.07333,1.4904,0.075479,0.043578,0.99619,1.3964,0.80622,16.5126,0,0,0,8.1062,4.6729,97.6837,-0.061888,0.080917,0.0011494,0.19198,0.19198,0.4533,40.8841,23.5682,492.675,-0.066797,0.087336,0.0012406,544.2992,5.0436,0.63184,1.0793,1.0793,0.0065695,2.4676,1.9145,0.15144,141.9445,
0.2102,0.14811,0.08551,1.74,0.075479,0.043578,0.99619,1.517,0.87583,17.96,0,0,0,8.2256,4.7412,99.3047,-0.067262,0.088033,0.0012453,0.17773,0.17773,0.4527,41.4363,23.884,500.2475,-0.072493,0.09488,0.0013422,551.8561,5.0375,0.63243,1.0778,1.0778,0.0065675,2.4676,1.9145,0.15143,141.9452,
0.22469,0.17096,0.098705,2.0108,0.075479,0.043578,0.99619,1.6395,0.94657,19.433,0,0,0,8.3438,4.8089,100.9111,-0.072772,0.095341,0.0013431,0.1653,0.1653,0.45209,41.9803,24.195,507.7181,-0.078318,0.10261,0.0014455,559.3115,5.0313,0.63304,1.0762,1.0762,0.0065655,2.4676,1.9145,0.15142,141.946,
0.23917,0.19561,0.11293,2.303,0.075479,0.043578,0.99619,1.764,1.0184,20.9313,0,0,0,8.4611,4.8759,102.5068,-0.078417,0.10284,0.0014428,0.15438,0.15438,0.45147,42.5177,24.5021,515.1071,-0.084268,0.11051,0.0015504,566.6707,5.0251,0.63366,1.0746,1.0746,0.0065635,2.4676,1.9145,0.15141,141.9469,
0.25365,0.22207,0.12821,2.6172,0.075479,0.043578,0.99619,1.8903,1.0914,22.4548,0,0,0,8.5769,4.9422,104.0855,-0.084197,0.11053,0.0015443,0.14472,0.14472,0.45085,43.0458,24.8038,522.3821,-0.090342,0.1186,0.001657,573.9297,5.0188,0.63429,1.073,1.073,0.0065615,2.4676,1.9145,0.1514,141.9478,
0.25655,0.22758,0.13139,2.6826,0.075479,0.043578,0.99619,1.9158,1.1061,22.7624,0,0,0,8.6,4.9554,104.3998,-0.085368,0.11209,0.0015648,0.14292,0.14292,0.45072,43.1506,24.8637,523.827,-0.091571,0.12024,0.0016785,575.3714,5.0175,0.63441,1.0727,1.0727,0.006561,2.4676,1.9145,0.1514,141.948,
0.25944,0.23316,0.13462,2.749,0.075479,0.043578,0.99619,1.9414,1.1209,23.071,0,0,0,8.6231,4.9686,104.714,-0.086545,0.11366,0.0015854,0.14116,0.14116,0.45059,43.2553,24.9235,525.2706,-0.092805,0.12188,0.0017,576.8119,5.0162,0.63454,1.0723,1.0723,0.0065606,2.4676,1.9145,0.1514,141.9482,
0.26234,0.23882,0.13788,2.8162,0.075479,0.043578,0.99619,1.967,1.1357,23.3806,0,0,0,8.6459,4.9816,105.0253,-0.087727,0.11523,0.001606,0.13943,0.13943,0.45047,43.3587,24.9825,526.697,-0.094044,0.12353,0.0017217,578.2352,5.015,0.63467,1.072,1.072,0.0065602,2.4676,1.9145,0.1514,141.9484,
0.26523,0.24455,0.14119,2.8844,0.075479,0.043578,0.99619,1.9928,1.1505,23.6912,0,0,0,8.6687,4.9947,105.3367,-0.088915,0.11682,0.0016267,0.13775,0.13775,0.45034,43.462,25.0415,528.1233,-0.095288,0.12519,0.0017433,579.6584,5.0137,0.63479,1.0717,1.0717,0.0065598,2.4676,1.9145,0.15139,141.9486,
0.26609,0.24627,0.14218,2.9048,0.075479,0.043578,0.99619,2.0004,1.1549,23.7836,0,0,0,8.6755,4.9985,105.4291,-0.089268,0.11729,0.0016329,0.13726,0.13726,0.4503,43.4927,25.059,528.5464,-0.095657,0.12568,0.0017498,580.0805,5.0133,0.63483,1.0716,1.0716,0.0065597,2.4676,1.9145,0.15139,141.9487,
0.26695,0.24799,0.14318,2.9252,0.075479,0.043578,0.99619,2.0081,1.1594,23.876,0,0,0,8.6823,5.0024,105.5215,-0.089622,0.11776,0.0016391,0.13677,0.13677,0.45026,43.5233,25.0765,528.9694,-0.096028,0.12618,0.0017562,580.5027,5.0129,0.63487,1.0715,1.0715,0.0065596,2.4676,1.9145,0.15139,141.9487,
0.26781,0.24972,0.14417,2.9458,0.075479,0.043578,0.99619,2.0157,1.1638,23.9685,0,0,0,8.689,5.0063,105.6139,-0.089976,0.11823,0.0016453,0.13629,0.13629,0.45023,43.554,25.094,529.3925,-0.096398,0.12667,0.0017627,580.9248,5.0125,0.63491,1.0714,1.0714,0.0065594,2.4676,1.9145,0.15139,141.9488,
0.26867,0.25145,0.14518,2.9664,0.075479,0.043578,0.99619,2.0234,1.1682,24.0611,0,0,0,8.6958,5.0101,105.7063,-0.090331,0.11871,0.0016514,0.1358,0.1358,0.45019,43.5846,25.1115,529.8155,-0.096769,0.12717,0.0017691,581.347,5.0121,0.63494,1.0713,1.0713,0.0065593,2.4676,1.9145,0.15139,141.9489,
0.26953,0.25319,0.14618,2.9871,0.075479,0.043578,0.99619,2.031,1.1726,24.1537,-4.2029e-05,5.5234e-05,7.6825e-07,8.7026,5.014,105.7988,-0.090673,0.11916,0.0016574,0.13532,0.13532,0.45015,43.6153,25.129,530.2386,-0.097128,0.12765,0.0017754,581.7691,5.0118,0.63498,1.0712,1.0712,0.0065592,2.4676,1.9145,0.15139,141.9489,
0.27039,0.25494,0.14719,3.0079,0.075479,0.043578,0.99619,2.0387,1.177,24.2465,-0.00012479,0.00016401,2.281e-06,8.7094,5.0179,105.8912,-0.091005,0.11961,0.0016631,0.13484,0.13484,0.45011,43.646,25.1466,530.6616,-0.097474,0.12811,0.0017814,582.1913,5.0114,0.63502,1.0711,1.0711,0.0065591,2.4676,1.9145,0.15139,141.949,
0.27125,0.25669,0.1482,3.0288,0.075479,0.043578,0.99619,2.0463,1.1814,24.3393,-0.00020802,0.00027339,3.8019e-06,8.7162,5.0218,105.9837,-0.091337,0.12005,0.0016689,0.13437,0.13436,0.45007,43.6767,25.1642,531.0846,-0.09782,0.12857,0.0017874,582.6135,5.011,0.63506,1.071,1.071,0.0065589,2.4676,1.9145,0.15139,141.9491,
0.27211,0.25845,0.14922,3.0497,0.07548,0.043578,0.99619,2.0539,1.1858,24.4323,-0.0002844,0.00037378,5.1973e-06,8.7229,5.0257,106.0756,-0.091671,0.12049,0.0016747,0.1339,0.13389,0.45004,43.7073,25.1816,531.5043,-0.098169,0.12904,0.0017934,583.0323,5.0106,0.6351,1.0709,1.0709,0.0065588,2.4676,1.9145,0.15139,141.9491,
0.27288,0.26006,0.15014,3.0687,0.07548,0.043579,0.99619,2.0609,1.1898,24.5165,-0.00035586,0.00046772,6.5027e-06,8.729,5.0292,106.1584,-0.091973,0.1209,0.0016799,0.13347,0.13346,0.45,43.7348,25.1974,531.8824,-0.098485,0.12946,0.0017989,583.4096,5.0103,0.63513,1.0708,1.0708,0.0065587,2.4676,1.9145,0.15139,141.9492,
0.27366,0.26166,0.15107,3.0879,0.07548,0.043579,0.99619,2.0678,1.1938,24.6009,-0.00042757,0.00056198,7.8123e-06,8.7352,5.0327,106.2413,-0.092276,0.1213,0.0016852,0.13305,0.13303,0.44997,43.7625,25.2132,532.2605,-0.0988,0.12988,0.0018043,583.7869,5.0099,0.63517,1.0707,1.0707,0.0065586,2.4676,1.9145,0.15139,141.9492,
0.27444,0.26327,0.152,3.107,0.075481,0.043579,0.99619,2.0747,1.1978,24.6853,-0.00049951,0.00065656,9.1261e-06,8.7413,5.0362,106.3241,-0.092578,0.12171,0.0016904,0.13263,0.13261,0.44993,43.7901,25.2291,532.6386,-0.099116,0.1303,0.0018098,584.1642,5.0096,0.6352,1.0706,1.0706,0.0065585,2.4676,1.9145,0.15139,141.9493,
0.27522,0.26489,0.15293,3.1263,0.075481,0.04358,0.99619,2.0817,1.2018,24.7698,-0.0005717,0.00075146,1.0444e-05,8.7474,5.0397,106.407,-0.092881,0.12211,0.0016957,0.13221,0.13219,0.4499,43.8178,25.2449,533.0167,-0.099432,0.13072,0.0018153,584.5415,5.0092,0.63524,1.0705,1.0705,0.0065584,2.4676,1.9145,0.15139,141.9493,
0.27911,0.27305,0.15765,3.2234,0.075485,0.043583,0.99619,2.1165,1.2219,25.1932,-0.00093628,0.0012308,1.7097e-05,8.7782,5.0574,106.8216,-0.094399,0.12414,0.0017219,0.13015,0.13012,0.44972,43.9569,25.3248,534.9069,-0.10101,0.13284,0.0018426,586.428,5.0075,0.63541,1.0701,1.0701,0.0065578,2.4676,1.9145,0.15138,141.9496,
0.283,0.28136,0.16244,3.3223,0.075491,0.043587,0.99619,2.1515,1.242,25.6184,-0.0013069,0.0017183,2.3855e-05,8.8093,5.0753,107.2363,-0.095923,0.12618,0.0017482,0.12814,0.12811,0.44955,44.097,25.4054,536.7969,-0.1026,0.13496,0.00187,588.3144,5.0057,0.63558,1.0696,1.0696,0.0065573,2.4676,1.9145,0.15138,141.9499,
0.28689,0.28979,0.16731,3.4228,0.075499,0.043593,0.99619,2.1866,1.2622,26.0455,-0.0016837,0.002214,3.0718e-05,8.8403,5.0932,107.6477,-0.097451,0.12822,0.0017746,0.12619,0.12614,0.44937,44.2368,25.4861,538.6669,-0.10419,0.13709,0.0018974,590.1809,5.004,0.63576,1.0692,1.0692,0.0065567,2.4676,1.9145,0.15138,141.9502,
0.29078,0.29837,0.17226,3.5249,0.075508,0.0436,0.99619,2.2218,1.2825,26.4743,-0.0020665,0.0027178,3.7688e-05,8.8715,5.1112,108.0581,-0.098985,0.13028,0.001801,0.12429,0.12423,0.4492,44.3772,25.5673,540.5302,-0.10579,0.13923,0.0019248,592.041,5.0022,0.63594,1.0687,1.0687,0.0065561,2.4676,1.9145,0.15137,141.9505,
0.29971,0.31857,0.18392,3.7657,0.075538,0.043622,0.99619,2.3032,1.3294,27.4654,-0.0029687,0.0039055,5.4085e-05,8.9437,5.1531,108.9967,-0.10252,0.13502,0.0018618,0.12011,0.12003,0.44879,44.7022,25.7562,544.7831,-0.10946,0.14415,0.0019877,596.2869,4.9982,0.63634,1.0677,1.0677,0.0065548,2.4676,1.9145,0.15136,141.9513,
0.30864,0.3395,0.196,4.0154,0.075578,0.043653,0.99618,2.3853,1.3767,28.4658,-0.0039034,0.0051369,7.1043e-05,9.0169,5.1959,109.9308,-0.10608,0.13979,0.0019227,0.11615,0.11606,0.44838,45.0314,25.9486,549.0031,-0.11315,0.1491,0.0020507,600.4943,4.9941,0.63675,1.0666,1.0666,0.0065535,2.4676,1.9145,0.15136,141.952,
0.31757,0.36117,0.20851,4.2741,0.075629,0.043692,0.99618,2.4681,1.4245,29.4755,-0.0048711,0.0064124,8.8565e-05,9.0908,5.2392,110.8544,-0.10966,0.14459,0.0019836,0.11241,0.11229,0.44797,45.3626,26.1436,553.1588,-0.11685,0.15407,0.0021136,604.6374,4.99,0.63716,1.0655,1.0655,0.0065522,2.4676,1.9145,0.15135,141.9528,
0.3265,0.38358,0.22144,4.5419,0.075692,0.04374,0.99617,2.5517,1.4726,30.4945,-0.0058718,0.0077322,0.00010665,9.1656,5.2835,111.7719,-0.11326,0.14943,0.0020446,0.10887,0.10873,0.44755,45.6982,26.3424,557.2734,-0.12056,0.15906,0.0021764,608.7398,4.9858,0.63758,1.0645,1.0645,0.0065508,2.4676,1.9145,0.15134,141.9536,
0.34206,0.42444,0.24502,5.0304,0.07583,0.043845,0.99616,2.6992,1.5577,32.2923,-0.0076953,0.010139,0.00013951,9.2986,5.3627,113.3535,-0.11955,0.15789,0.0021509,0.1031,0.10293,0.44682,46.2934,26.6983,564.3329,-0.12703,0.16777,0.0022853,615.7786,4.9785,0.63831,1.0626,1.0626,0.0065485,2.4676,1.9145,0.15132,141.955,
0.35762,0.4676,0.26993,5.5471,0.076007,0.043979,0.99614,2.8491,1.6441,34.1177,-0.0096204,0.012683,0.00017409,9.4351,5.4449,114.9121,-0.12585,0.1664,0.0022565,0.097794,0.097591,0.44607,46.9032,27.0674,571.2459,-0.13349,0.17649,0.0023932,622.6728,4.9712,0.63906,1.0606,1.0606,0.0065461,2.4676,1.9145,0.15131,141.9566,
0.37318,0.51312,0.2962,6.0924,0.076224,0.044144,0.99611,3.0014,1.7321,35.9705,-0.011647,0.015365,0.00021037,9.575,5.5301,116.4423,-0.13215,0.17491,0.0023608,0.092887,0.092653,0.44532,47.5276,27.4499,577.9845,-0.13991,0.18518,0.0024994,629.3948,4.9637,0.63981,1.0587,1.0587,0.0065437,2.4676,1.9145,0.15129,141.9582,
0.38874,0.56103,0.32385,6.6667,0.076483,0.044341,0.99608,3.1562,1.8215,37.8505,-0.013776,0.018184,0.00024834,9.7192,5.6189,117.9469,-0.13841,0.18339,0.0024636,0.088325,0.088062,0.44455,48.1701,27.8482,584.564,-0.14626,0.19379,0.0026034,635.9596,4.9562,0.64058,1.0567,1.0567,0.0065413,2.4676,1.9145,0.15127,141.9599,
0.40644,0.61846,0.357,7.3557,0.076833,0.044607,0.99605,3.3353,1.9252,40.0209,-0.016321,0.021557,0.00029391,9.8889,5.7246,119.6272,-0.14544,0.19294,0.0025633,0.083497,0.083202,0.44367,48.9256,28.3226,591.8566,-0.15335,0.20344,0.0027183,643.2378,4.9475,0.64146,1.0544,1.0544,0.0065385,2.4676,1.9145,0.15125,141.962,
0.42414,0.6791,0.392,8.0834,0.077244,0.044918,0.996,3.518,2.0309,42.2255,-0.018995,0.025106,0.00034136,10.0647,5.8355,121.2657,-0.15233,0.20233,0.0026681,0.078998,0.078673,0.44277,49.7072,28.82,598.9008,-0.16026,0.21287,0.0028286,650.2781,4.9387,0.64236,1.0521,1.0521,0.0065356,2.4676,1.9145,0.15122,141.9642,
0.44183,0.743,0.42889,8.8504,0.077719,0.045278,0.99595,3.7042,2.139,44.4637,-0.021795,0.028829,0.00039015,10.2477,5.9523,122.8674,-0.15901,0.21148,0.0027957,0.074779,0.074425,0.44186,50.5201,29.3441,605.7236,-0.16692,0.222,0.0029332,657.1041,4.9299,0.64327,1.0498,1.0498,0.0065328,2.4676,1.9145,0.1512,141.9665,
0.45953,0.81023,0.46772,9.6574,0.078261,0.045688,0.99589,3.8941,2.2494,46.735,-0.02472,0.03272,0.00044104,10.4382,6.0753,124.4281,-0.16543,0.2203,0.0029107,0.070799,0.070418,0.44094,51.3662,29.8964,612.3049,-0.17327,0.23073,0.0030308,663.694,4.921,0.64419,1.0474,1.0474,0.0065299,2.4676,1.9145,0.15117,141.9689,
0.48038,0.89381,0.51601,10.6602,0.078989,0.04624,0.9958,4.1229,2.3827,49.4528,-0.028316,0.037513,0.00050873,10.6735,6.229,126.2147,-0.17256,0.23012,0.0028232,0.066368,0.065956,0.43984,52.41,30.5865,619.753,-0.18023,0.24037,0.0031335,671.1595,4.9103,0.64529,1.0445,1.0445,0.0065265,2.4676,1.9145,0.15114,141.9719,
0.50124,0.98222,0.56712,11.7202,0.079819,0.046867,0.99571,4.3573,2.5196,52.2147,-0.032067,0.042519,0.00057552,10.9208,6.3927,127.938,-0.17907,0.23917,0.0028502,0.06217,0.061728,0.43872,53.5069,31.3213,626.8374,-0.18651,0.24914,0.0032227,678.2701,4.8995,0.64641,1.0416,1.0416,0.006523,2.4676,1.9145,0.1511,141.975,
0.52209,1.0756,0.62113,12.8383,0.080755,0.047574,0.9956,4.5977,2.6605,55.0195,-0.035959,0.04772,0.00063544,11.1815,6.5672,129.6006,-0.18479,0.24726,0.0032128,0.058163,0.057694,0.43758,54.6627,32.1049,633.5738,-0.19195,0.25683,0.0032972,685.0441,4.8887,0.64755,1.0387,1.0387,0.0065195,2.4676,1.9145,0.15106,141.9784,
0.54295,1.174,0.67811,14.0152,0.081801,0.048363,0.99547,4.8443,2.8055,57.866,-0.039974,0.053095,0.00069953,11.4565,6.7532,131.1996,-0.18959,0.25415,0.0034569,0.054311,0.053816,0.43643,55.881,32.94,639.9506,-0.19639,0.26322,0.003351,691.4715,4.8777,0.6487,1.0357,1.0357,0.0065159,2.4676,1.9145,0.15103,141.9819,
0.5661,1.2894,0.74498,15.392,0.083094,0.049339,0.99532,5.1259,2.9717,61.0737,-0.044547,0.059235,0.00081316,11.7788,6.9735,132.8918,-0.19374,0.26001,0.0020919,0.05018,0.049658,0.43514,57.3082,33.9289,646.5688,-0.19992,0.26849,0.003373,698.1601,4.8654,0.65,1.0324,1.0324,0.006512,2.4676,1.9145,0.15098,141.986,
0.58925,1.4114,0.81576,16.8436,0.08453,0.05042,0.99514,5.416,3.1437,64.3297,-0.049215,0.06551,0.00090352,12.1203,7.2093,134.4983,-0.19617,0.26377,0.0016478,0.046168,0.045622,0.43382,58.8193,34.9864,652.7137,-0.20172,0.2715,0.0033678,704.3915,4.853,0.65131,1.029,1.029,0.006508,2.4676,1.9145,0.15093,141.9904,
0.6124,1.5403,0.89059,18.3711,0.086111,0.05161,0.99495,5.7151,3.3218,67.6323,-0.053941,0.071867,0.00093162,12.4817,7.461,136.0161,-0.19646,0.26512,0.0036006,0.042248,0.04168,0.43249,60.4167,36.1145,658.3753,-0.20151,0.27187,0.0033402,710.1563,4.8404,0.65265,1.0255,1.0255,0.0065039,2.4676,1.9145,0.15088,141.9949,
0.63555,1.6761,0.96962,19.9756,0.087838,0.052909,0.99473,6.0238,3.5065,70.9793,-0.058669,0.078245,0.00097845,12.8634,7.729,137.4418,-0.19457,0.26347,0.0047387,0.038396,0.037808,0.43114,62.1017,37.3139,663.5412,-0.199,0.26919,0.0032641,715.4459,4.8278,0.654,1.022,1.022,0.0064998,2.4676,1.9145,0.15083,141.9997,
0.65264,1.7811,1.0307,21.2099,0.089207,0.053937,0.99455,6.2581,3.6473,73.4772,-0.062124,0.082927,0.0010707,13.1583,7.9373,138.435,-0.19174,0.25998,0.0032639,0.035586,0.034985,0.43013,63.4021,38.2453,667.038,-0.19548,0.26503,0.0031622,719.0493,4.8184,0.65501,1.0194,1.0194,0.0064968,2.4676,1.9145,0.15079,142.0034,
0.66973,1.8901,1.0943,22.487,0.090655,0.055024,0.99436,6.498,3.7921,75.9974,-0.065528,0.087547,0.001142,13.464,8.1543,139.3726,-0.18732,0.25451,0.0025187,0.032797,0.032186,0.42911,64.7483,39.214,670.2422,-0.19043,0.25881,0.0030368,722.3712,4.809,0.65602,1.0168,1.0168,0.0064938,2.4676,1.9145,0.15075,142.0072,
0.68682,2.0032,1.1604,23.8074,0.09218,0.056167,0.99416,6.7438,3.941,78.5393,-0.068855,0.092067,0.0011761,13.7806,8.38,140.2567,-0.18112,0.2469,0.0031015,0.030025,0.029405,0.42808,66.1403,40.2201,673.1665,-0.18371,0.25038,0.0028897,725.4248,4.7995,0.65705,1.0142,1.0142,0.0064907,2.4676,1.9145,0.1507,142.0112,
0.70391,2.1206,1.229,25.1715,0.09378,0.057366,0.99394,6.9957,4.0942,81.1017,-0.072073,0.096452,0.0012118,14.108,8.6143,141.0899,-0.17314,0.23691,0.0034936,0.027268,0.026641,0.42705,67.5779,41.263,675.825,-0.17521,0.23958,0.0027091,728.2244,4.79,0.65808,1.0115,1.0115,0.0064877,2.4676,1.9145,0.15066,142.0153,
0.721,2.2423,1.3003,26.5795,0.095453,0.058619,0.99371,7.2539,4.2517,83.6839,-0.075145,0.10066,0.0012869,14.445,8.8564,141.8611,-0.16341,0.22427,0.0022153,0.024524,0.023891,0.42601,69.0541,42.3379,678.1655,-0.16482,0.22626,0.0024838,730.7176,4.7805,0.65912,1.0088,1.0088,0.0064846,2.4676,1.9145,0.15061,142.0195,
0.73809,2.3686,1.3744,28.0317,0.097195,0.059922,0.99346,7.5185,4.4139,86.2848,-0.078043,0.10464,0.0013427,14.7918,9.1063,142.58,-0.15158,0.20894,0.0014995,0.021792,0.021155,0.42496,70.5704,43.4454,680.2382,-0.15244,0.21026,0.0022268,732.9552,4.7709,0.66017,1.0061,1.0061,0.0064815,2.4676,1.9145,0.15056,142.0238,
0.75518,2.4993,1.4512,29.5286,0.099002,0.061272,0.9932,7.7897,4.5807,88.9035,-0.080734,0.10835,0.0013592,15.1472,9.3631,143.2407,-0.13749,0.19084,0.0020856,0.019073,0.018435,0.4239,72.1206,44.5809,682.0159,-0.13797,0.19148,0.0019415,734.9106,4.7613,0.66123,1.0034,1.0034,0.0064784,2.4676,1.9145,0.15051,142.0283,
0.77227,2.6348,1.531,31.0704,0.10087,0.062665,0.99292,8.0677,4.7524,91.5391,-0.083174,0.11174,0.001376,15.51,9.6261,143.8403,-0.12119,0.16974,0.0024211,0.01637,0.015732,0.42284,73.6988,45.7402,683.487,-0.12135,0.16979,0.0016168,736.5758,4.7517,0.66229,1.0006,1.0006,0.0064753,2.4676,1.9145,0.15046,142.0329,
0.77513,2.658,1.5446,31.3331,0.10119,0.062903,0.99288,8.1149,4.7817,91.9823,-0.083556,0.11227,0.0013834,15.5716,9.6708,143.9365,-0.11826,0.16589,0.0022788,0.015919,0.015282,0.42266,73.9665,45.937,683.7118,-0.11835,0.16587,0.0015574,736.8344,4.7501,0.66247,1.0002,1.0002,0.0064748,2.4676,1.9145,0.15045,142.0337,
0.77799,2.6813,1.5583,31.5971,0.10151,0.063141,0.99283,8.1624,4.811,92.4258,-0.083928,0.11279,0.0013904,15.6335,9.7157,144.0321,-0.11526,0.16195,0.0021443,0.015468,0.014831,0.42248,74.2352,46.1347,683.9335,-0.11529,0.16187,0.001497,737.0903,4.7485,0.66265,0.99971,0.99971,0.0064743,2.4676,1.9145,0.15045,142.0345,
0.78086,2.7047,1.5722,31.8623,0.10183,0.063381,0.99278,8.21,4.8406,92.8699,-0.084293,0.1133,0.001397,15.6951,9.7604,144.1212,-0.11219,0.15793,0.0020164,0.015018,0.014382,0.4223,74.5023,46.3314,684.1236,-0.11216,0.15778,0.0014356,737.3147,4.7469,0.66283,0.99925,0.99925,0.0064737,2.4676,1.9145,0.15044,142.0353,
0.78372,2.7283,1.5861,32.1288,0.10215,0.063621,0.99273,8.2578,4.8702,93.3143,-0.084649,0.1138,0.0014032,15.757,9.8054,144.2102,-0.10906,0.15382,0.0018945,0.014568,0.013933,0.42212,74.7707,46.5291,684.3133,-0.10898,0.1536,0.0013731,737.5391,4.7452,0.66301,0.99878,0.99878,0.0064732,2.4676,1.9145,0.15043,142.0361,
0.78658,2.752,1.6,32.3966,0.10247,0.063863,0.99268,8.3058,4.9,93.7592,-0.084992,0.11428,0.0014091,15.8192,9.8506,144.2992,-0.10586,0.14963,0.001777,0.01412,0.013485,0.42194,75.0404,46.7278,684.5026,-0.10573,0.14934,0.0013095,737.7635,4.7436,0.66319,0.99832,0.99832,0.0064727,2.4676,1.9145,0.15042,142.0369,
0.78944,2.7759,1.6141,32.6657,0.1028,0.064105,0.99263,8.354,4.93,94.2045,-0.085335,0.11476,0.0014147,15.8818,9.8961,144.3883,-0.10259,0.14534,0.0016651,0.013671,0.013037,0.42177,75.3115,46.9274,684.6916,-0.10241,0.145,0.0012449,737.9879,4.742,0.66337,0.99786,0.99786,0.0064722,2.4676,1.9145,0.15041,142.0377,
0.79231,2.7999,1.6283,32.9361,0.10313,0.064349,0.99258,8.4024,4.96,94.6502,-0.085687,0.11526,0.0014203,15.9441,9.9414,144.4718,-0.099249,0.14095,0.0015572,0.013224,0.01259,0.42159,75.5813,47.1264,684.854,-0.099029,0.14055,0.0011792,738.186,4.7404,0.66355,0.99739,0.99739,0.0064717,2.4676,1.9145,0.1504,142.0385,
0.79517,2.824,1.6425,33.2077,0.10345,0.064593,0.99253,8.451,4.9902,95.0962,-0.086039,0.11576,0.0014257,15.9962,9.9798,144.5271,-0.10661,0.15163,0.0015864,0.012776,0.012143,0.42141,75.8023,47.292,684.8823,-0.10631,0.15115,0.0012468,738.3761,4.7388,0.66373,0.99693,0.99693,0.0064711,2.4676,1.9145,0.15039,142.0393,
0.79776,2.8459,1.6555,33.4547,0.10375,0.064815,0.99249,8.4952,5.0177,95.5004,-0.086348,0.11619,0.0014303,16.0531,10.0212,144.6006,-0.10327,0.14727,0.0014893,0.012372,0.011739,0.42124,76.0485,47.4736,685.0192,-0.10295,0.14673,0.001181,738.5483,4.7373,0.66389,0.99651,0.99651,0.0064707,2.4676,1.9145,0.15038,142.04,
0.80035,2.868,1.6685,33.7028,0.10405,0.065038,0.99244,8.5395,5.0453,95.905,-0.086648,0.11662,0.0014346,16.1102,10.0628,144.6742,-0.099877,0.14281,0.0013941,0.011967,0.011336,0.42108,76.2957,47.656,685.1557,-0.099515,0.14223,0.0011142,738.7204,4.7359,0.66405,0.99609,0.99609,0.0064702,2.4676,1.9145,0.15038,142.0408,
0.80295,2.8902,1.6816,33.9519,0.10435,0.065262,0.9924,8.584,5.073,96.3098,-0.086939,0.11703,0.0014387,16.1675,10.1046,144.7464,-0.096414,0.13827,0.0013004,0.011564,0.010933,0.42092,76.5434,47.8389,685.286,-0.096022,0.13765,0.0010463,738.8867,4.7344,0.66422,0.99567,0.99567,0.0064697,2.4676,1.9145,0.15037,142.0415,
0.80554,2.9125,1.6948,34.2021,0.10465,0.065486,0.99235,8.6286,5.1008,96.715,-0.087221,0.11743,0.0014426,16.2246,10.1461,144.8135,-0.092884,0.13363,0.0012081,0.011161,0.01053,0.42075,76.7896,48.0208,685.3909,-0.092466,0.13298,0.00097728,739.0277,4.7329,0.66438,0.99524,0.99524,0.0064692,2.4676,1.9145,0.15036,142.0423,
0.81219,2.9703,1.729,34.8489,0.10543,0.066065,0.99223,8.744,5.1728,97.7564,-0.087904,0.11841,0.0014515,16.372,10.2536,144.9853,-0.083518,0.12133,0.00097173,0.010129,0.0095011,0.42033,77.426,48.4911,685.6586,-0.083049,0.12061,0.00079527,739.3897,4.7292,0.6648,0.99416,0.99416,0.006468,2.4676,1.9145,0.15034,142.0442,
0.81884,3.0289,1.7637,35.5028,0.10621,0.066649,0.99211,8.8604,5.2455,98.7998,-0.088523,0.11931,0.0014589,16.52,10.3616,145.1467,-0.073708,0.10842,0.00074071,0.0091016,0.0084763,0.41991,78.0635,48.9627,685.8758,-0.073211,0.10766,0.00060616,739.7031,4.7254,0.66522,0.99307,0.99307,0.0064668,2.4676,1.9145,0.15032,142.0462,
0.8255,3.0882,1.7988,36.1635,0.107,0.067236,0.99198,8.9779,5.319,99.8452,-0.089077,0.12011,0.0014646,16.6687,10.4702,145.3014,-0.06345,0.094916,0.00051746,0.0080788,0.0074567,0.41949,78.7037,49.4363,686.0596,-0.062952,0.094148,0.00041,739.9851,4.7216,0.66564,0.99198,0.99198,0.0064656,2.4676,1.9145,0.1503,142.0481,
0.83215,3.1483,1.8344,36.8312,0.1078,0.067826,0.99186,9.0965,5.3933,100.8925,-0.089562,0.12083,0.0014688,16.8175,10.5789,145.4432,-0.052742,0.080802,0.00029347,0.0070613,0.0064428,0.41907,79.3427,49.9097,686.1814,-0.052271,0.080061,0.00020674,740.2068,4.7179,0.66607,0.99089,0.99089,0.0064644,2.4676,1.9145,0.15027,142.0501,
0.84516,3.2682,1.9055,38.1567,0.10936,0.068988,0.9916,9.3315,5.5408,102.9451,-0.090299,0.12196,0.0014785,17.1094,10.7923,145.6974,-0.030532,0.051434,-0.00037159,0.0050899,0.00448,0.41824,80.594,50.8373,686.3072,-0.030172,0.050867,-0.00021235,740.5332,4.7105,0.6669,0.98875,0.98875,0.006462,2.4676,1.9145,0.15023,142.0541,
0.85816,3.3911,1.9786,39.509,0.11094,0.070158,0.99135,9.5707,5.6913,105.0043,-0.090738,0.12269,0.0014791,17.4016,11.0061,145.9161,-0.0065913,0.01974,-0.00094063,0.0031475,0.0025495,0.4174,81.8417,51.7633,686.2619,-0.0064727,0.019495,-0.00065714,740.6947,4.7031,0.66773,0.98661,0.98661,0.0064596,2.4676,1.9145,0.15019,142.0581,
0.87117,3.5171,2.0536,40.888,0.11252,0.071331,0.99109,9.8141,5.8449,107.0697,-0.090858,0.12299,0.0014634,17.6928,11.2195,146.0991,0.019093,-0.014243,-0.0011493,0.0012526,0.0006935,0.41657,83.0811,52.6842,686.0459,0.018797,-0.014021,-0.001125,740.6912,4.6958,0.66856,0.98446,0.98446,0.0064573,2.4676,1.9145,0.15014,142.0623,
0.88417,3.6464,2.1306,42.294,0.11411,0.072503,0.99082,10.0617,6.0015,109.1406,-0.090634,0.12284,0.0014425,17.9821,11.4316,146.2458,0.046437,-0.050503,-0.0014269,0.00072739,0.0012746,0.41573,84.3068,53.5959,685.6569,0.04559,-0.049624,-0.0016176,740.5228,4.6884,0.6694,0.9823,0.9823,0.0064549,2.4676,1.9145,0.15009,142.0665,
0.90055,3.8138,2.2306,44.1032,0.11609,0.073971,0.99048,10.3795,6.203,111.7565,-0.089824,0.12196,0.0014456,18.3419,11.6957,146.3808,0.082986,-0.09941,-0.003283,0.0029858,0.0035403,0.41468,85.8239,54.7255,684.9316,0.0814,-0.09731,-0.0022797,740.0881,4.6791,0.67046,0.97957,0.97957,0.0064519,2.4676,1.9145,0.15004,142.0719,
0.91693,3.9865,2.3339,45.9555,0.11806,0.07542,0.99014,10.7038,6.4093,114.3794,-0.088393,0.12025,0.0014193,18.6937,11.9541,146.4535,0.12199,-0.15155,-0.0044962,0.005207,0.0057408,0.41361,87.2963,55.8236,683.9141,0.11933,-0.14793,-0.0029693,739.3666,4.6698,0.67152,0.97683,0.97683,0.0064489,2.4676,1.9145,0.14997,142.0774,
0.93332,4.1645,2.4406,47.8507,0.11998,0.07684,0.9898,11.0344,6.6201,117.0086,-0.086308,0.11766,0.0013269,19.0353,12.2052,146.471,0.16338,-0.20653,-0.0037249,0.0073383,0.0078476,0.41255,88.7156,56.8833,682.6395,0.15914,-0.20118,-0.0036725,738.3914,4.6606,0.67258,0.97409,0.97409,0.0064459,2.4676,1.9145,0.14991,142.0831,
0.9497,4.348,2.5508,49.789,0.12186,0.07822,0.98946,11.3712,6.8354,119.643,-0.083525,0.11413,0.0012315,19.3643,12.4471,146.4352,0.20657,-0.26412,-0.0033368,0.0093627,0.0098443,0.41148,90.0698,57.8955,681.1187,0.20051,-0.25664,-0.004398,737.171,4.6513,0.67365,0.97134,0.97134,0.0064429,2.4676,1.9145,0.14985,142.0889,
0.96473,4.5213,2.655,51.6056,0.12353,0.079442,0.98916,11.6854,7.0367,122.0639,-0.080326,0.11004,0.0011983,19.6516,12.6585,146.3495,0.2472,-0.31902,-0.0054305,0.011113,0.011566,0.4105,91.2399,58.7715,679.4803,0.23951,-0.30906,-0.0050905,735.8066,4.6429,0.67463,0.96881,0.96881,0.0064402,2.4676,1.9145,0.14979,142.0943,
0.97976,4.6993,2.7623,53.4585,0.12513,0.08061,0.98886,12.0045,7.2415,124.4874,-0.076501,0.10511,0.001135,19.9228,12.858,146.2158,0.28878,-0.37516,-0.0068242,0.012746,0.01317,0.40952,92.3306,59.5894,677.6238,0.27914,-0.36244,-0.0057816,734.2201,4.6344,0.67561,0.96628,0.96628,0.0064375,2.4676,1.9145,0.14973,142.0998,
0.99479,4.8822,2.8727,55.3479,0.12665,0.081717,0.98858,12.328,7.4496,126.913,-0.072041,0.099315,0.0010146,20.1757,13.0441,146.0369,0.33102,-0.4319,-0.0065171,0.014252,0.014643,0.40854,93.3323,60.3417,675.5633,0.319,-0.41626,-0.0064568,732.4233,4.626,0.6766,0.96374,0.96374,0.0064347,2.4676,1.9145,0.14967,142.1055,
1.0098,5.0699,2.9863,57.2738,0.12807,0.082752,0.98831,12.6558,7.6607,129.3399,-0.066936,0.092646,0.00088792,20.4077,13.2148,145.8134,0.37321,-0.48877,-0.0063789,0.015615,0.015972,0.40755,94.2339,61.0203,673.3024,0.3586,-0.46989,-0.0071193,730.4172,4.6176,0.67758,0.96121,0.96121,0.006432,2.4676,1.9145,0.1496,142.1112,
1.0234,5.2435,3.0914,59.0414,0.12927,0.083616,0.98808,12.9546,7.8535,131.5282,-0.061776,0.085891,0.00081052,20.5967,13.3539,145.5725,0.41054,-0.53966,-0.0079322,0.016713,0.017037,0.40666,94.9507,61.5613,671.0891,0.39366,-0.5175,-0.0077072,728.4237,4.61,0.67847,0.95892,0.95892,0.0064296,2.4676,1.9145,0.14955,142.1165,
1.0369,5.4211,3.1992,60.8387,0.13037,0.084407,0.98787,13.2564,8.0483,133.7164,-0.056103,0.078437,0.00071264,20.7646,13.4774,145.2951,0.44699,-0.58941,-0.0090189,0.017676,0.017966,0.40577,95.5683,62.0292,668.7147,0.42765,-0.56381,-0.0082646,726.2576,4.6025,0.67936,0.95663,0.95663,0.0064272,2.4676,1.9145,0.14949,142.1219,
1.0505,5.6028,3.3096,62.6656,0.13136,0.085118,0.98767,13.5607,8.245,135.9038,-0.049935,0.070299,0.00057813,20.9093,13.5838,144.9789,0.48215,-0.6373,-0.0090284,0.018497,0.018751,0.40489,96.0771,62.417,666.1695,0.46011,-0.60821,-0.0087789,723.9073,4.5949,0.68025,0.95434,0.95434,0.0064247,2.4676,1.9145,0.14943,142.1274,
1.064,5.7886,3.4226,64.5222,0.13225,0.085744,0.9875,13.8673,8.4433,138.0898,-0.043288,0.061509,0.00043763,21.0293,13.6721,144.6269,0.51534,-0.68271,-0.009055,0.019165,0.019383,0.404,96.4709,62.72,663.4683,0.49055,-0.65002,-0.0092482,721.3856,4.5874,0.68114,0.95205,0.95205,0.0064223,2.4676,1.9145,0.14937,142.1329,
1.0763,5.9604,3.5273,66.2275,0.13294,0.08623,0.98737,14.1463,8.6239,140.0661,-0.036883,0.053025,0.00033164,21.1153,13.7353,144.2789,0.54307,-0.7211,-0.010021,0.019633,0.019817,0.40319,96.7228,62.917,660.8971,0.51589,-0.68503,-0.0096318,718.9622,4.5807,0.68194,0.94997,0.94997,0.0064201,2.4676,1.9145,0.14931,142.138,
1.0886,6.1355,3.6341,67.9569,0.13353,0.086636,0.98725,14.4266,8.8055,142.0404,-0.030138,0.044072,0.00021391,21.1785,13.7817,143.9021,0.5683,-0.7562,-0.01069,0.019964,0.020114,0.40239,96.8696,63.0367,658.2027,0.53872,-0.71679,-0.009961,716.4003,4.574,0.68274,0.9479,0.9479,0.006418,2.4676,1.9145,0.14925,142.1432,
1.1008,6.3141,3.7432,69.7106,0.134,0.086959,0.98716,14.708,8.9877,144.0124,-0.02309,0.03469,7.5129e-05,21.2177,13.8104,143.4968,0.59061,-0.78734,-0.010694,0.020156,0.020271,0.40159,96.9067,63.0756,655.386,0.5586,-0.74471,-0.010226,713.7009,4.5673,0.68355,0.94584,0.94584,0.0064158,2.4676,1.9145,0.1492,142.1484,
1.1131,6.4962,3.8545,71.4885,0.13436,0.087194,0.98709,14.99,9.1704,145.9816,-0.015773,0.024933,-6.6749e-05,21.232,13.8208,143.0635,0.60942,-0.81393,-0.010646,0.020203,0.020283,0.40078,96.8302,63.0308,652.4513,0.5751,-0.76819,-0.010423,710.8652,4.5606,0.68435,0.94377,0.94377,0.0064136,2.4676,1.9145,0.14914,142.1538,
1.1245,6.6684,3.9599,73.161,0.13459,0.087332,0.98705,15.2522,9.3403,147.8074,-0.0087761,0.015588,-0.00018433,21.2224,13.8136,142.6374,0.62325,-0.834,-0.01113,0.020114,0.020162,0.40004,96.655,62.9126,649.6264,0.587,-0.78551,-0.010542,708.1146,4.5544,0.68509,0.94185,0.94185,0.0064117,2.4676,1.9145,0.14909,142.1588,
1.1358,6.8435,4.0672,74.8543,0.13471,0.087391,0.98702,15.5145,9.5102,149.6301,-0.0016289,0.0060246,-0.00030742,21.1899,13.7897,142.1878,0.63325,-0.84899,-0.011393,0.019897,0.019912,0.3993,96.3766,62.7186,646.7032,0.59523,-0.79798,-0.010588,705.2492,4.5482,0.68584,0.93994,0.93994,0.0064097,2.4676,1.9145,0.14903,142.1638,
1.1472,7.0217,4.1765,76.5683,0.13473,0.087368,0.98702,15.7765,9.6799,151.4495,0.0056216,-0.0036985,-0.00044198,21.1338,13.7484,141.7124,0.63905,-0.85833,-0.011181,0.019549,0.019533,0.39855,95.9918,62.4467,643.6721,0.59944,-0.80514,-0.010554,702.2602,4.5421,0.68658,0.93803,0.93803,0.0064077,2.4676,1.9145,0.14897,142.1689,
1.1586,7.2028,4.2876,78.303,0.13463,0.087263,0.98705,16.0381,9.8493,153.2651,0.012927,-0.013513,-0.00057595,21.054,13.6898,141.2136,0.6402,-0.86152,-0.010889,0.019072,0.019024,0.39781,95.5008,62.097,640.5447,0.59927,-0.8065,-0.010437,699.1578,4.536,0.68732,0.93612,0.93612,0.0064057,2.4676,1.9145,0.14892,142.1741,
1.1616,7.2512,4.3174,78.7658,0.13459,0.087221,0.98706,16.1073,9.894,153.7453,0.014864,-0.016119,-0.00060907,21.029,13.6715,141.0785,0.63967,-0.86127,-0.010874,0.018924,0.018868,0.39762,95.3535,61.9917,639.7043,0.59845,-0.80584,-0.010391,698.3214,4.5344,0.68752,0.93561,0.93561,0.0064052,2.4676,1.9145,0.1489,142.1755,
1.1646,7.2999,4.3473,79.23,0.13454,0.087174,0.98707,16.1763,9.9387,154.225,0.016799,-0.018724,-0.00064215,21.0019,13.6516,140.939,0.63877,-0.86054,-0.010848,0.018767,0.018703,0.39742,95.197,61.8798,638.8454,0.59729,-0.80472,-0.01034,697.465,4.5328,0.68771,0.93511,0.93511,0.0064047,2.4676,1.9145,0.14889,142.1769,
1.1677,7.3488,4.3773,79.6957,0.13448,0.087121,0.98708,16.2454,9.9834,154.7046,0.018733,-0.021327,-0.00067516,20.9734,13.6307,140.7997,0.63751,-0.85933,-0.010814,0.018601,0.018529,0.39723,95.0342,61.7632,637.9876,0.5958,-0.80315,-0.010281,696.6087,4.5312,0.68791,0.93461,0.93461,0.0064042,2.4676,1.9145,0.14887,142.1783,
1.1707,7.3979,4.4075,80.1629,0.13441,0.087062,0.98709,16.3143,10.028,155.1838,0.020663,-0.023928,-0.00070807,20.9435,13.6088,140.6605,0.63588,-0.85762,-0.010769,0.018425,0.018346,0.39703,94.8649,61.6418,637.1309,0.59395,-0.80112,-0.010217,695.7524,4.5296,0.6881,0.9341,0.9341,0.0064036,2.4676,1.9145,0.14886,142.1797,
1.1737,7.4472,4.4378,80.6315,0.13433,0.086997,0.98711,16.3832,10.0726,155.6628,0.022589,-0.026524,-0.00074085,20.9118,13.5855,140.5194,0.63386,-0.8554,-0.010716,0.018241,0.018154,0.39683,94.688,61.5148,636.2661,0.59175,-0.79861,-0.010146,694.8868,4.528,0.6883,0.9336,0.9336,0.0064031,2.4676,1.9145,0.14884,142.1811,
1.1767,7.4967,4.4682,81.1015,0.13425,0.086927,0.98713,16.452,10.1171,156.1414,0.024509,-0.029114,-0.00077347,20.8781,13.5608,140.3733,0.63146,-0.85267,-0.010654,0.018049,0.017953,0.39664,94.5016,61.3811,635.38,0.58919,-0.79563,-0.010068,693.9986,4.5264,0.68849,0.93309,0.93309,0.0064026,2.4676,1.9145,0.14883,142.1825,
1.1797,7.5464,4.4988,81.573,0.13416,0.086851,0.98715,16.5207,10.1615,156.6197,0.026423,-0.031696,-0.00080591,20.8428,13.535,140.2273,0.62866,-0.84941,-0.010583,0.017847,0.017744,0.39644,94.3089,61.2426,634.495,0.58627,-0.79216,-0.0099829,693.1104,4.5248,0.68869,0.93259,0.93259,0.0064021,2.4676,1.9145,0.14881,142.1839,
1.1827,7.5963,4.5295,82.0459,0.13406,0.086769,0.98717,16.5894,10.2059,157.0977,0.028328,-0.034269,-0.00083815,20.8062,13.5081,140.0814,0.62547,-0.84562,-0.010503,0.017636,0.017526,0.39625,94.1097,61.0995,633.611,0.58298,-0.7882,-0.0098913,692.2221,4.5232,0.68888,0.93209,0.93209,0.0064016,2.4676,1.9145,0.1488,142.1853,
1.1839,7.6164,4.5419,82.2363,0.13402,0.086734,0.98718,16.617,10.2237,157.2902,0.029091,-0.0353,-0.00085103,20.7911,13.497,140.0229,0.62407,-0.84395,-0.010468,0.017549,0.017435,0.39617,94.028,61.0406,633.2561,0.58155,-0.78647,-0.0098527,691.8653,4.5225,0.68896,0.93189,0.93189,0.0064014,2.4676,1.9145,0.14879,142.1859,
1.1852,7.6365,4.5543,82.4269,0.13398,0.086699,0.98718,16.6444,10.2414,157.481,0.029852,-0.036329,-0.00086387,20.7757,13.4858,139.9644,0.6226,-0.84218,-0.010432,0.017461,0.017344,0.39609,93.9451,60.981,632.9016,0.58006,-0.78465,-0.0098127,691.5085,4.5219,0.68904,0.93168,0.93168,0.0064012,2.4676,1.9145,0.14878,142.1865,
1.1864,7.6567,4.5667,82.6177,0.13394,0.086663,0.98719,16.6702,10.2581,157.6589,0.03061,-0.037353,-0.00087661,19.5225,12.6735,130.7848,0.62091,-0.84011,-0.010392,0.017371,0.017251,0.39604,88.2697,57.3026,591.3351,0.5784,-0.78261,-0.0097696,649.4058,4.5214,0.6891,0.93155,0.93155,0.006401,2.4676,1.9145,0.14878,142.187,
1.1876,7.6769,4.5791,82.8088,0.13389,0.086625,0.9872,16.6947,10.274,157.8273,0.031366,-0.038375,-0.00088931,18.264,11.858,121.5617,0.61909,-0.83786,-0.010349,0.017281,0.017158,0.39598,82.5713,53.6098,549.5797,0.57661,-0.78039,-0.0097244,607.1115,4.521,0.68915,0.93141,0.93141,0.0064009,2.4676,1.9145,0.14877,142.1876,
1.1888,7.6971,4.5916,83,0.13384,0.086587,0.98721,16.7177,10.2889,157.9844,0.032119,-0.039394,-0.00090195,17.0058,11.0428,112.3369,0.61711,-0.83541,-0.010303,0.017191,0.017065,0.39593,76.8757,49.9194,507.8248,0.57469,-0.778,-0.0096767,564.8172,4.5206,0.6892,0.93127,0.93127,0.0064007,2.4676,1.9145,0.14877,142.1882,
1.19,7.7174,4.604,83.1915,0.1338,0.086548,0.98722,16.7392,10.3027,158.1303,0.03287,-0.04041,-0.00091453,15.7481,10.228,103.1103,0.615,-0.83277,-0.010255,0.0171,0.016971,0.39588,71.183,46.2315,466.0702,0.57263,-0.77542,-0.0096267,522.523,4.5201,0.68926,0.93113,0.93113,0.0064006,2.4676,1.9145,0.14876,142.1887,
1.1912,7.7377,4.6165,83.3831,0.13375,0.086508,0.98723,16.7591,10.3156,158.265,0.033618,-0.041423,-0.00092706,14.4908,9.4136,93.882,0.61274,-0.82994,-0.010204,0.017009,0.016877,0.39582,65.4935,42.5463,424.3159,0.57044,-0.77267,-0.0095744,480.2287,4.5197,0.68931,0.93099,0.93099,0.0064005,2.4676,1.9145,0.14875,142.1893,
1.1924,7.758,4.629,83.5748,0.1337,0.086468,0.98724,16.7776,10.3276,158.3886,0.034364,-0.042433,-0.00093952,13.234,8.5996,84.652,0.61033,-0.82691,-0.01015,0.016918,0.016783,0.39577,59.8073,38.8638,382.5619,0.56812,-0.76974,-0.0095198,437.9344,4.5192,0.68937,0.93085,0.93085,0.0064003,2.4676,1.9145,0.14875,142.1899,
1.1934,7.775,4.6395,83.7356,0.13365,0.086433,0.98725,16.7918,10.3368,158.4836,0.034987,-0.043276,-0.00094992,12.1812,7.918,76.9164,0.60821,-0.82423,-0.010103,0.016842,0.016704,0.39572,55.0452,35.7802,347.5742,0.56607,-0.76714,-0.0094723,402.4938,4.5189,0.68941,0.93073,0.93073,0.0064002,2.4676,1.9145,0.14874,142.1904,
1.1945,7.7921,4.65,83.8965,0.13361,0.086397,0.98726,16.805,10.3453,158.5707,0.035607,-0.044117,-0.00096027,11.1288,7.2366,69.1795,0.60599,-0.82141,-0.010054,0.016765,0.016625,0.39568,50.2855,32.6987,312.5867,0.56393,-0.76442,-0.0094232,367.0533,4.5185,0.68946,0.93062,0.93062,0.0064001,2.4676,1.9145,0.14874,142.1909,
1.1955,7.8091,4.6605,84.0575,0.13357,0.086361,0.98727,16.8172,10.3532,158.6499,0.036226,-0.044954,-0.00097056,10.0769,6.5557,61.4413,0.60366,-0.81845,-0.010003,0.016688,0.016546,0.39563,45.5285,29.6193,277.5994,0.5617,-0.76158,-0.0093725,331.6127,4.5181,0.6895,0.9305,0.9305,0.0064,2.4676,1.9145,0.14873,142.1913,
1.1965,7.8262,4.671,84.2186,0.13352,0.086324,0.98728,16.8283,10.3603,158.7214,0.036842,-0.045789,-0.00098081,9.0253,5.8751,53.702,0.60124,-0.81537,-0.009951,0.016612,0.016467,0.39559,40.7742,26.5421,242.6122,0.55938,-0.75861,-0.0093203,296.1721,4.5178,0.68955,0.93038,0.93038,0.0063998,2.4676,1.9145,0.14873,142.1918,
1.1975,7.8433,4.6815,84.3797,0.13347,0.086287,0.98729,16.8382,10.3668,158.7847,0.037455,-0.046621,-0.00099101,7.9742,5.1949,45.9614,0.59873,-0.81215,-0.0098968,0.016535,0.016387,0.39554,36.0227,23.4672,207.6251,0.55697,-0.75552,-0.0092665,260.7315,4.5174,0.68959,0.93027,0.93027,0.0063997,2.4676,1.9145,0.14872,142.1923,
1.1985,7.8604,4.6921,84.5408,0.13343,0.086249,0.9873,16.8466,10.3722,158.8344,0.038063,-0.047446,-0.0010011,7.5542,4.9227,42.8865,0.596,-0.80865,-0.0098388,0.016456,0.016306,0.39552,34.1242,22.2371,193.7287,0.5544,-0.75223,-0.00921,246.6545,4.5172,0.68961,0.93022,0.93022,0.0063997,2.4676,1.9145,0.14872,142.1928,
1.1995,7.8775,4.7026,84.7021,0.13338,0.08621,0.98731,16.8545,10.3773,158.8809,0.038669,-0.048267,-0.0010111,7.1404,4.6546,39.856,0.59321,-0.80507,-0.0097796,0.016377,0.016225,0.39551,32.254,21.0253,180.0338,0.55178,-0.74887,-0.0091525,232.7816,4.5171,0.68963,0.93018,0.93018,0.0063996,2.4676,1.9145,0.14871,142.1933,
1.2005,7.8946,4.7131,84.8633,0.13333,0.086171,0.98732,16.8621,10.3823,158.9247,0.039271,-0.049084,-0.001021,6.7268,4.3867,36.8254,0.59036,-0.80141,-0.0097194,0.016297,0.016142,0.39549,30.3848,19.8144,166.339,0.54911,-0.74542,-0.009094,218.9087,4.517,0.68964,0.93014,0.93014,0.0063996,2.4676,1.9145,0.1487,142.1937,
1.2017,7.9135,4.7248,85.0413,0.13328,0.086127,0.98733,16.8699,10.3874,158.9694,0.039932,-0.049982,-0.0010319,6.2708,4.0913,33.4818,0.58714,-0.79727,-0.0096517,0.016208,0.016051,0.39547,28.3239,18.4795,151.2313,0.54609,-0.74154,-0.0090285,203.6045,4.5168,0.68966,0.93009,0.93009,0.0063995,2.4676,1.9145,0.1487,142.1943,
1.2028,7.9324,4.7364,85.2193,0.13322,0.086083,0.98734,16.8772,10.3921,159.0103,0.04059,-0.050874,-0.0010427,5.815,3.7961,30.1381,0.58386,-0.79303,-0.0095826,0.016118,0.015958,0.39545,26.2643,17.1457,136.1236,0.543,-0.73756,-0.0089617,188.3002,4.5167,0.68968,0.93004,0.93004,0.0063995,2.4676,1.9145,0.14869,142.1948,
1.2039,7.9513,4.748,85.3973,0.13316,0.086037,0.98735,16.8841,10.3965,159.0475,0.041244,-0.051763,-0.0010535,5.3595,3.5011,26.7941,0.5805,-0.7887,-0.0095122,0.016028,0.015865,0.39544,24.2061,15.813,121.016,0.53985,-0.73349,-0.0088939,172.996,4.5165,0.6897,0.93,0.93,0.0063994,2.4676,1.9145,0.14869,142.1953,
1.205,7.9702,4.7597,85.5754,0.13311,0.085991,0.98736,16.8904,10.4006,159.081,0.041894,-0.052646,-0.0010641,4.9042,3.2064,23.4499,0.57706,-0.78426,-0.0094405,0.015937,0.015771,0.39542,22.1492,14.4814,105.9085,0.53663,-0.72933,-0.0088249,157.6917,4.5164,0.68972,0.92995,0.92995,0.0063994,2.4676,1.9145,0.14868,142.1959,
1.2106,8.0648,4.8179,86.4663,0.1328,0.08575,0.98743,16.9145,10.4164,159.193,0.045087,-0.056987,-0.0011165,2.8279,1.8627,8.1783,0.55883,-0.76064,-0.0090537,0.015467,0.015289,0.39533,12.7699,8.4114,36.9306,0.51956,-0.7072,-0.0084636,87.8141,4.5157,0.6898,0.92973,0.92973,0.0063992,2.4676,1.9145,0.14865,142.1985,
1.2162,8.1595,4.8763,87.3576,0.13248,0.085491,0.98749,16.9284,10.4255,159.2269,0.048162,-0.061177,-0.0011664,1.9887,1.3186,2.0663,0.5389,-0.7347,-0.008638,0.014974,0.014783,0.3953,8.9798,5.9542,9.3303,0.50098,-0.68302,-0.0080771,59.8428,4.5154,0.68983,0.92965,0.92965,0.0063991,2.4676,1.9145,0.14862,142.2012,
1.2218,8.2543,4.9347,88.249,0.13213,0.085216,0.98756,16.9374,10.4315,159.2246,0.05112,-0.065212,-0.0012135,1.1525,0.77703,-4.0462,0.51774,-0.7071,-0.0082141,0.014456,0.014253,0.39527,5.2038,3.5084,-18.2695,0.48127,-0.6573,-0.0076725,31.8716,4.5152,0.68986,0.92957,0.92957,0.006399,2.4676,1.9145,0.14859,142.2039,
1.2274,8.3492,4.9931,89.1403,0.13176,0.084925,0.98764,16.9428,10.4351,159.195,0.053969,-0.069105,-0.0012584,0.71092,0.49028,-7.228,0.50102,-0.68508,-0.007915,0.013913,0.013697,0.39526,3.2099,2.2137,-32.635,0.46572,-0.63681,-0.0073724,17.3028,4.5151,0.68987,0.92954,0.92954,0.006399,2.4676,1.9145,0.14857,142.2065,
1.2323,8.4321,5.0441,89.919,0.13142,0.084657,0.98771,16.9454,10.4369,159.1538,0.056388,-0.072416,-0.0012966,0.35144,0.25695,-9.8204,0.48643,-0.66583,-0.0076475,0.013417,0.013192,0.39525,1.5868,1.1602,-44.3392,0.45215,-0.6189,-0.007113,5.4315,4.515,0.68988,0.92952,0.92952,0.006399,2.4676,1.9145,0.14854,142.2089,
1.2372,8.515,5.0952,90.6975,0.13106,0.084378,0.98778,16.9466,10.4379,159.1028,0.058727,-0.075619,-0.0013332,0.18024,0.14505,-11.004,0.46849,-0.64223,-0.007299,0.012904,0.012668,0.39525,0.81378,0.65489,-49.6829,0.43546,-0.59696,-0.0067845,0,4.515,0.68988,0.92952,0.92952,0.0063989,2.4676,1.9145,0.14852,142.2112,
1.2421,8.5979,5.1463,91.4758,0.13069,0.084088,0.98785,16.9475,10.4386,159.0489,0.060968,-0.078694,-0.0013679,0.16669,0.13467,-10.9992,0.44738,-0.61451,-0.006878,0.012372,0.012127,0.39525,0.75261,0.60802,-49.6614,0.41585,-0.5712,-0.0063932,0,4.515,0.68988,0.92952,0.92952,0.0063989,2.4676,1.9145,0.14849,142.2135,
1.247,8.6808,5.1973,92.2538,0.1303,0.083787,0.98793,16.9483,10.4392,158.9953,0.063104,-0.08163,-0.0014005,0.15274,0.12399,-10.9944,0.4257,-0.58599,-0.006448,0.011822,0.011568,0.39525,0.68963,0.55983,-49.6396,0.39569,-0.54469,-0.0059936,0,4.515,0.68988,0.92952,0.92952,0.0063989,2.4676,1.9145,0.14846,142.2158,
1.252,8.7654,5.2495,93.0476,0.12989,0.08347,0.98801,16.949,10.4398,158.9405,0.065173,-0.084482,-0.0014316,0.13811,0.11282,-10.9894,0.40299,-0.55608,-0.0060007,0.011243,0.010981,0.39525,0.62358,0.50936,-49.6169,0.37458,-0.51688,-0.0055778,0,4.515,0.68988,0.92952,0.92952,0.0063989,2.4676,1.9145,0.14844,142.2182,
1.257,8.8501,5.3016,93.8412,0.12947,0.083142,0.98809,16.9496,10.4403,158.8856,0.067127,-0.087183,-0.0014604,0.12311,0.10137,-10.9843,0.37974,-0.52542,-0.0055455,0.010648,0.010377,0.39525,0.55585,0.45769,-49.5939,0.35297,-0.48839,-0.0051547,0,4.515,0.68988,0.92952,0.92952,0.0063989,2.4676,1.9145,0.14841,142.2206,
1.262,8.9347,5.3537,94.6345,0.12903,0.082806,0.98818,16.9502,10.4408,158.8308,0.068965,-0.089729,-0.001487,0.10776,0.089677,-10.9791,0.35599,-0.49406,-0.0050833,0.010038,0.009759,0.39525,0.48656,0.40489,-49.5706,0.3309,-0.45924,-0.004725,0,4.515,0.68988,0.92952,0.92952,0.0063989,2.4676,1.9145,0.14839,142.223,
1.267,9.0194,5.4059,95.4275,0.12858,0.08246,0.98826,16.9507,10.4412,158.7761,0.070682,-0.092116,-0.0015112,0.092099,0.077755,-10.9739,0.33179,-0.46207,-0.0046147,0.0094124,0.0091264,0.39525,0.41583,0.35106,-49.5471,0.3084,-0.4295,-0.0042894,0,4.515,0.68988,0.92952,0.92952,0.0063989,2.4676,1.9145,0.14836,142.2253,
1.2783,9.2114,5.5242,97.226,0.12753,0.081646,0.98847,16.9516,10.442,158.6519,0.074124,-0.096931,-0.0015574,0.0555,0.049958,-10.9619,0.27536,-0.38734,-0.0035317,0.0079449,0.0076443,0.39525,0.25058,0.22556,-49.4929,0.25595,-0.36004,-0.0032828,0,4.515,0.68988,0.92952,0.92952,0.0063989,2.4676,1.9145,0.1483,142.2307,
1.2896,9.4035,5.6425,99.0231,0.12642,0.080797,0.98868,16.952,10.4424,158.5278,0.076917,-0.10089,-0.0015912,0.017696,0.021318,-10.9497,0.21726,-0.31021,-0.002429,0.00642,0.0061072,0.39525,0.079898,0.09625,-49.438,0.20194,-0.28834,-0.0022578,0,4.515,0.68988,0.92952,0.92952,0.0063989,2.4676,1.9145,0.14825,142.2361,
1.301,9.5956,5.7609,100.8187,0.12527,0.079921,0.9889,16.952,10.4424,158.4039,0.079043,-0.10396,-0.0016124,-0.020998,-0.0079274,-10.9375,0.15795,-0.2313,-0.0013153,0.0048502,0.0045281,0.39525,-0.094807,-0.035792,-49.3827,0.14681,-0.215,-0.0012226,0,4.515,0.68988,0.92952,0.92952,0.0063989,2.4676,1.9145,0.14819,142.2414,
1.3123,9.7877,5.8792,102.613,0.1241,0.079024,0.98912,16.9515,10.4422,158.2802,0.080493,-0.10612,-0.001621,-0.060267,-0.03754,-10.9253,0.097916,-0.15126,-0.00019969,0.0032489,0.0029206,0.39525,-0.2721,-0.16949,-49.3276,0.091015,-0.1406,-0.00018562,0,4.515,0.68988,0.92952,0.92952,0.0063989,2.4676,1.9145,0.14813,142.2468,
1.3239,9.9845,6.0004,104.4498,0.12287,0.078092,0.98935,16.9506,10.4416,158.1535,0.081272,-0.1074,-0.0016167,-0.10076,-0.06801,-10.9129,0.03617,-0.06877,0.00093613,0.0015923,0.0012628,0.39525,-0.45494,-0.30706,-49.2716,0.033621,-0.063923,0.00087015,0,4.515,0.68988,0.92952,0.92952,0.0063989,2.4676,1.9145,0.14807,142.2523,
1.3355,10.1813,6.1216,106.2851,0.12163,0.077155,0.98957,16.9492,10.4406,158.027,0.081334,-0.10772,-0.0015993,-0.14123,-0.098386,-10.901,-0.02531,0.01354,0.0020554,0.00021805,0.00046889,0.39525,-0.63765,-0.44421,-49.218,-0.023526,0.012585,0.0019105,0,4.515,0.68988,0.92952,0.92952,0.0063989,2.4676,1.9145,0.14801,142.2578,
1.3471,10.378,6.2428,108.1189,0.1204,0.076221,0.98979,16.9473,10.4393,157.9006,0.080687,-0.10709,-0.0015691,-0.18171,-0.12866,-10.8929,-0.08602,0.094986,0.0031491,0.0017636,0.0020941,0.39525,-0.82042,-0.58088,-49.1813,-0.079957,0.088291,0.0029271,0,4.515,0.68988,0.92952,0.92952,0.0063989,2.4676,1.9145,0.14795,142.2633,
1.3587,10.5748,6.364,109.9513,0.11918,0.075299,0.99001,16.9449,10.4376,157.7743,0.079342,-0.10552,-0.0015263,-0.22145,-0.15831,-10.8851,-0.14547,0.17491,0.0042084,0.0034,0.0037268,0.39525,-0.99986,-0.71476,-49.1464,-0.13522,0.16258,0.0039118,0,4.515,0.68988,0.92952,0.92952,0.0063989,2.4676,1.9145,0.14789,142.2688,
1.3726,10.8092,6.5084,112.133,0.11776,0.074226,0.99026,16.9416,10.4352,157.6239,0.076852,-0.10246,-0.0014597,-0.26739,-0.1925,-10.8763,-0.21402,0.26729,0.0054145,0.005309,0.0056266,0.39525,-1.2073,-0.86913,-49.1067,-0.19893,0.24845,0.0050328,0,4.515,0.68988,0.92952,0.92952,0.0063989,2.4676,1.9145,0.14782,142.2753,
1.3864,11.0435,6.6527,114.3126,0.11638,0.073193,0.9905,16.9375,10.4323,157.4736,0.073435,-0.098145,-0.0013768,-0.31129,-0.22507,-10.868,-0.27934,0.35557,0.0065467,0.0071489,0.0074533,0.39525,-1.4055,-1.0162,-49.069,-0.25965,0.33051,0.0060853,0,4.515,0.68988,0.92952,0.92952,0.0063989,2.4676,1.9145,0.14775,142.2818,
1.4002,11.2778,6.797,116.4901,0.11507,0.072213,0.99073,16.933,10.429,157.3234,0.069141,-0.092643,-0.0012789,-0.35266,-0.25568,-10.8601,-0.34072,0.43878,0.0075928,0.0088983,0.0091856,0.39525,-1.5923,-1.1544,-49.0336,-0.31671,0.40786,0.0070577,0,4.515,0.68988,0.92952,0.92952,0.0063989,2.4676,1.9145,0.14768,142.2883,
1.4141,11.512,6.9413,118.6656,0.11385,0.071297,0.99094,16.9278,10.4252,157.1733,0.064029,-0.086031,-0.0011672,-0.39106,-0.28398,-10.8528,-0.39752,0.51605,0.0085419,0.010537,0.010804,0.39525,-1.7656,-1.2822,-49.0004,-0.3695,0.47967,0.0079399,0,4.515,0.68988,0.92952,0.92952,0.0063989,2.4676,1.9145,0.14761,142.2948,
1.4264,11.7209,7.0699,120.6043,0.11284,0.070544,0.99111,16.9228,10.4216,157.0395,0.058833,-0.079267,-0.0010571,-0.42247,-0.30704,-10.8467,-0.44383,0.57929,0.0092988,0.011892,0.012138,0.39525,-1.9075,-1.3863,-48.9728,-0.41255,0.53846,0.0086434,0,4.515,0.68988,0.92952,0.92952,0.0063989,2.4676,1.9145,0.14755,142.3006,
1.4387,11.9297,7.1985,122.5414,0.11192,0.069857,0.99126,16.9174,10.4177,156.9058,0.053093,-0.071758,-0.00093809,-0.45094,-0.32785,-10.841,-0.48565,0.63665,0.0099647,0.013133,0.013355,0.39525,-2.036,-1.4802,-48.9471,-0.45142,0.59177,0.0092624,0,4.515,0.68988,0.92952,0.92952,0.0063989,2.4676,1.9145,0.14749,142.3064,
1.4511,12.1384,7.327,124.4769,0.11109,0.069244,0.9914,16.9117,10.4135,156.7722,0.046867,-0.06358,-0.00081151,-0.47622,-0.34624,-10.8357,-0.52265,0.68766,0.010535,0.014249,0.014446,0.39525,-2.1501,-1.5633,-48.9232,-0.48582,0.63919,0.0097921,0,4.515,0.68988,0.92952,0.92952,0.0063989,2.4676,1.9145,0.14742,142.3122,
1.4634,12.3471,7.4555,126.4106,0.11036,0.06871,0.99151,16.9056,10.4091,156.6386,0.040215,-0.054814,-0.00067852,-0.49814,-0.36207,-10.8308,-0.55456,0.73195,0.011004,0.015232,0.015402,0.39525,-2.2491,-1.6347,-48.9011,-0.51548,0.68036,0.010229,0,4.515,0.68988,0.92952,0.92952,0.0063989,2.4676,1.9145,0.14736,142.318,
1.4758,12.5557,7.5839,128.3428,0.10975,0.06826,0.99161,16.8994,10.4046,156.5051,0.033202,-0.045544,-0.00054035,-0.51653,-0.37523,-10.8263,-0.58116,0.76921,0.011371,0.016073,0.016214,0.39525,-2.3321,-1.6942,-48.8808,-0.5402,0.715,0.01057,0,4.515,0.68988,0.92952,0.92952,0.0063989,2.4676,1.9145,0.1473,142.3237,
1.4881,12.7642,7.7123,130.2733,0.10925,0.067897,0.99169,16.8929,10.3999,156.3716,0.025894,-0.035859,-0.0003983,-0.53127,-0.38563,-10.8222,-0.60226,0.79918,0.011632,0.016767,0.016877,0.39525,-2.3987,-1.7411,-48.8622,-0.55981,0.74285,0.010812,0,4.515,0.68988,0.92952,0.92952,0.0063989,2.4676,1.9145,0.14724,142.3295,
1.5004,12.9726,7.8406,132.2021,0.10887,0.067626,0.99175,16.8863,10.3951,156.2382,0.018361,-0.025851,-0.0002537,-0.54225,-0.3932,-10.8184,-0.61774,0.82168,0.011787,0.017306,0.017386,0.39525,-2.4483,-1.7753,-48.8453,-0.5742,0.76377,0.010956,0,4.515,0.68988,0.92952,0.92952,0.0063989,2.4676,1.9145,0.14718,142.3353,
1.5128,13.1809,7.9689,134.1293,0.10862,0.067448,0.99179,16.8795,10.3902,156.1048,0.010671,-0.015611,-0.00010786,-0.54944,-0.39792,-10.8151,-0.62755,0.83661,0.011834,0.017689,0.017736,0.39525,-2.4807,-1.7966,-48.83,-0.58331,0.77764,0.011,0,4.515,0.68988,0.92952,0.92952,0.0063989,2.4676,1.9145,0.14711,142.341,
1.524,13.3695,8.0849,135.8729,0.1085,0.067369,0.99181,16.8734,10.3857,155.9841,0.0036326,-0.0062182,2.4185e-05,-0.55265,-0.39973,-10.8123,-0.63151,0.84355,0.011786,0.017898,0.017916,0.39525,-2.4952,-1.8048,-48.8175,-0.58699,0.78409,0.010955,0,4.515,0.68988,0.92952,0.92952,0.0063989,2.4676,1.9145,0.14706,142.3463,
1.5351,13.558,8.2009,137.6152,0.10848,0.067368,0.99181,16.8672,10.3813,155.8634,-0.0034241,0.0032173,0.00015521,-0.55274,-0.39919,-10.8098,-0.63081,0.84427,0.011651,0.017975,0.017963,0.39525,-2.4956,-1.8024,-48.8063,-0.58635,0.78476,0.01083,0,4.515,0.68988,0.92952,0.92952,0.0063989,2.4676,1.9145,0.147,142.3515,
1.5463,13.7464,8.3169,139.3561,0.10857,0.067445,0.9918,16.861,10.3768,155.7427,-0.010447,0.012626,0.00028425,-0.54974,-0.39635,-10.8076,-0.62553,0.83882,0.011433,0.017921,0.01788,0.39525,-2.4821,-1.7895,-48.7964,-0.58144,0.7797,0.010627,0,4.515,0.68988,0.92952,0.92952,0.0063989,2.4676,1.9145,0.14695,142.3567,
1.5575,13.9348,8.4328,141.0956,0.10876,0.067599,0.99177,16.8549,10.3724,155.6221,-0.017386,0.02194,0.00041039,-0.5437,-0.39125,-10.8057,-0.61574,0.82733,0.011133,0.017737,0.017667,0.39525,-2.4548,-1.7665,-48.7877,-0.57234,0.76901,0.010349,0,4.515,0.68988,0.92952,0.92952,0.0063989,2.4676,1.9145,0.14689,142.3619,
1.5683,14.1174,8.5452,142.7809,0.10904,0.067822,0.99172,16.8491,10.3682,155.5051,-0.023986,0.030817,0.00052909,-0.53502,-0.3842,-10.8041,-0.60206,0.81054,0.010767,0.017436,0.017338,0.39525,-2.4156,-1.7346,-48.7805,-0.55962,0.75341,0.010009,0,4.515,0.68988,0.92952,0.92952,0.0063989,2.4676,1.9145,0.14684,142.3669,
1.5791,14.2999,8.6575,144.465,0.10942,0.068115,0.99166,16.8434,10.3641,155.3882,-0.030417,0.039483,0.00064345,-0.52364,-0.37515,-10.8027,-0.5844,0.78839,0.010331,0.017018,0.016893,0.39525,-2.3643,-1.6938,-48.7744,-0.54321,0.73282,0.0096029,0,4.515,0.68988,0.92952,0.92952,0.0063989,2.4676,1.9145,0.14678,142.372,
1.59,14.4823,8.7698,146.1477,0.10989,0.068477,0.99158,16.8378,10.3601,155.2713,-0.036635,0.047881,0.00075269,-0.50968,-0.36418,-10.8017,-0.56292,0.76107,0.0098276,0.016486,0.016335,0.39525,-2.3012,-1.6443,-48.7695,-0.52325,0.70743,0.0091349,0,4.515,0.68988,0.92952,0.92952,0.0063989,2.4676,1.9145,0.14673,142.377,
1.6008,14.6647,8.882,147.8292,0.11045,0.068903,0.99149,16.8323,10.3562,155.1543,-0.0426,0.055955,0.00085614,-0.49325,-0.35139,-10.8008,-0.53781,0.72883,0.0092611,0.015845,0.015668,0.39525,-2.227,-1.5865,-48.7657,-0.49991,0.67746,0.0086083,0,4.515,0.68988,0.92952,0.92952,0.0063989,2.4676,1.9145,0.14667,142.382,
1.6117,14.8473,8.9943,149.5119,0.11109,0.069394,0.99138,16.8271,10.3525,155.0373,-0.048283,0.063666,0.00095328,-0.47447,-0.33687,-10.8002,-0.50924,0.69187,0.0086351,0.015097,0.014896,0.39525,-2.1422,-1.5209,-48.7631,-0.47335,0.64311,0.0080265,0,4.515,0.68988,0.92952,0.92952,0.0063989,2.4676,1.9145,0.14662,142.387,
1.6225,15.0298,9.1066,151.1933,0.11182,0.069943,0.99126,16.822,10.3489,154.9202,-0.053639,0.070952,0.0010433,-0.45351,-0.32074,-10.7999,-0.47747,0.65056,0.0079552,0.014251,0.014026,0.39525,-2.0476,-1.4481,-48.7616,-0.44381,0.60471,0.0073945,0,4.515,0.68988,0.92952,0.92952,0.0063989,2.4676,1.9145,0.14657,142.3921,
1.6334,15.2123,9.2189,152.8734,0.11261,0.070549,0.99113,16.8172,10.3455,154.8031,-0.058633,0.077768,0.0011257,-0.43052,-0.30313,-10.7998,-0.44274,0.60521,0.0072265,0.013311,0.013065,0.39525,-1.9438,-1.3686,-48.7613,-0.41153,0.56255,0.0067171,0,4.515,0.68988,0.92952,0.92952,0.0063989,2.4676,1.9145,0.14651,142.3971,
1.6442,15.3947,9.3311,154.5523,0.11348,0.071206,0.99098,16.8127,10.3423,154.686,-0.063235,0.084071,0.0012,-0.4057,-0.28418,-10.8,-0.40533,0.55617,0.0064543,0.012286,0.01202,0.39525,-1.8317,-1.2831,-48.762,-0.37676,0.51697,0.0059994,0,4.515,0.68988,0.92952,0.92952,0.0063989,2.4676,1.9145,0.14646,142.4021,
1.6553,15.5816,9.446,156.2713,0.11444,0.071928,0.99082,16.8083,10.3393,154.5661,-0.067517,0.089958,0.0012671,-0.37855,-0.26351,-10.8004,-0.3645,0.50247,0.0056238,0.011153,0.010869,0.39525,-1.7091,-1.1898,-48.764,-0.33881,0.46706,0.0052274,0,4.515,0.68988,0.92952,0.92952,0.0063989,2.4676,1.9145,0.1464,142.4073,
1.6664,15.7685,9.561,157.989,0.11546,0.072694,0.99065,16.8043,10.3365,154.4461,-0.071332,0.095232,0.0013249,-0.34987,-0.24175,-10.8011,-0.32146,0.44571,0.0047598,0.0099471,0.0096459,0.39525,-1.5797,-1.0915,-48.7671,-0.2988,0.4143,0.0044243,0,4.515,0.68988,0.92952,0.92952,0.0063989,2.4676,1.9145,0.14635,142.4124,
1.6776,15.9553,9.6759,159.7054,0.11654,0.073501,0.99046,16.8006,10.3339,154.3261,-0.074658,0.099859,0.0013729,-0.31988,-0.21904,-10.802,-0.27654,0.38632,0.0038686,0.0086757,0.0083598,0.39525,-1.4443,-0.98899,-48.7712,-0.25705,0.35909,0.003596,0,4.515,0.68988,0.92952,0.92952,0.0063989,2.4676,1.9145,0.1463,142.4175,
1.6887,16.142,9.7907,161.4204,0.11766,0.07434,0.99027,16.7972,10.3316,154.2061,-0.077475,0.10381,0.0014108,-0.28881,-0.19557,-10.8032,-0.23007,0.32474,0.0029569,0.0073485,0.0070202,0.39525,-1.304,-0.88302,-48.7764,-0.21385,0.30185,0.0027485,0,4.515,0.68988,0.92952,0.92952,0.0063989,2.4676,1.9145,0.14624,142.4226,
1.7004,16.3385,9.9116,163.2231,0.11888,0.075254,0.99005,16.794,10.3295,154.0799,-0.079873,0.10722,0.0014397,-0.25521,-0.17024,-10.8046,-0.17989,0.25809,0.0019827,0.0059029,0.0055638,0.39525,-1.1523,-0.76865,-48.7829,-0.16721,0.2399,0.001843,0,4.515,0.68988,0.92952,0.92952,0.0063989,2.4676,1.9145,0.14618,142.428,
1.7121,16.5348,10.0324,165.0244,0.12013,0.076192,0.98983,16.7912,10.3276,153.9536,-0.081679,0.10984,0.0014572,-0.22093,-0.14446,-10.8063,-0.12878,0.19006,0.0010007,0.0044181,0.0040708,0.39525,-0.9975,-0.65223,-48.7904,-0.11971,0.17666,0.00093014,0,4.515,0.68988,0.92952,0.92952,0.0063989,2.4676,1.9145,0.14613,142.4334,
1.7238,16.7312,10.1531,166.8242,0.12142,0.077147,0.9896,16.7888,10.3261,153.8273,-0.082884,0.11167,0.0014631,-0.18625,-0.11842,-10.8081,-0.077149,0.12118,1.8416e-05,0.0029065,0.0025539,0.39525,-0.84091,-0.53466,-48.7988,-0.071712,0.11264,1.7118e-05,0,4.515,0.68988,0.92952,0.92952,0.0063989,2.4676,1.9145,0.14607,142.4388,
1.7355,16.9275,10.2739,168.6225,0.12271,0.078112,0.98936,16.7869,10.3249,153.701,-0.083483,0.11268,0.0014576,-0.15143,-0.092332,-10.8102,-0.025393,0.052007,-0.00095653,0.0013839,0.0010317,0.39525,-0.68371,-0.41688,-48.8078,-0.023603,0.048341,-0.00088911,0,4.515,0.68988,0.92952,0.92952,0.0063989,2.4676,1.9145,0.14601,142.4442,
1.7483,17.1433,10.4066,170.597,0.12415,0.079176,0.9891,16.7852,10.3239,153.5621,-0.083445,0.11286,0.0014385,-0.11342,-0.0639,-10.8132,0.031156,-0.023732,-0.0020108,0.00037208,0.00070101,0.39525,-0.5121,-0.28851,-48.8217,0.02896,-0.02206,-0.001869,0,4.515,0.68988,0.92952,0.92952,0.0063989,2.4676,1.9145,0.14595,142.4501,
1.7612,17.359,10.5393,172.5697,0.12558,0.080235,0.98883,16.7839,10.3232,153.4233,-0.082686,0.11207,0.0014061,-0.076285,-0.036142,-10.8193,0.086855,-0.098498,-0.0030377,0.0020015,0.0023548,0.39525,-0.34443,-0.16318,-48.8489,0.080733,-0.091556,-0.0028236,0,4.515,0.68988,0.92952,0.92952,0.0063989,2.4676,1.9145,0.14589,142.456,
1.774,17.5747,10.6719,174.5407,0.12699,0.081279,0.98857,16.7832,10.3229,153.2843,-0.081219,0.11033,0.0013606,-0.04,-0.0090799,-10.8253,0.1412,-0.17161,-0.0040282,0.0036471,0.0039959,0.39525,-0.1806,-0.040996,-48.8762,0.13125,-0.15952,-0.0037443,0,4.515,0.68988,0.92952,0.92952,0.0063989,2.4676,1.9145,0.14582,142.4619,
1.7869,17.7904,10.8046,176.5098,0.12837,0.0823,0.98831,16.7829,10.323,153.1452,-0.079064,0.10767,0.0013027,-0.0048796,0.017052,-10.8312,0.19372,-0.24243,-0.0049736,0.0052549,0.0055956,0.39525,-0.022032,0.07699,-48.903,0.18006,-0.22534,-0.004623,0,4.515,0.68988,0.92952,0.92952,0.0063989,2.4676,1.9145,0.14576,142.4678,
1.8031,18.0625,10.972,178.9912,0.13006,0.083542,0.98798,16.7832,10.3235,152.9697,-0.075408,0.10304,0.0012129,0.037298,0.048345,-10.8384,0.25665,-0.32754,-0.0060894,0.007204,0.0075301,0.39525,0.1684,0.21828,-48.9354,0.23856,-0.30445,-0.0056602,0,4.515,0.68988,0.92952,0.92952,0.0063989,2.4676,1.9145,0.14568,142.4752,
1.8193,18.3346,11.1393,181.4697,0.13166,0.084716,0.98767,16.7841,10.3245,152.7941,-0.070767,0.097082,0.0011059,0.076578,0.077383,-10.8451,0.31508,-0.40685,-0.0071056,0.0090386,0.0093458,0.39525,0.34575,0.34938,-48.9655,0.29287,-0.37817,-0.0066047,0,4.515,0.68988,0.92952,0.92952,0.0063989,2.4676,1.9145,0.1456,142.4826,
1.8355,18.6067,11.3067,183.9454,0.13316,0.085808,0.98737,16.7856,10.326,152.6184,-0.06522,0.089889,0.00098314,0.11245,0.10379,-10.8511,0.36825,-0.4793,-0.0080087,0.010733,0.011017,0.39525,0.50769,0.4686,-48.9925,0.34229,-0.44552,-0.0074442,0,4.515,0.68988,0.92952,0.92952,0.0063989,2.4676,1.9145,0.14552,142.49,
1.8517,18.8789,11.4742,186.4182,0.13453,0.086804,0.9871,16.7877,10.3279,152.4426,-0.058859,0.081583,0.00084676,0.14446,0.12723,-10.8562,0.41546,-0.54397,-0.0087876,0.012264,0.012521,0.39525,0.65222,0.57445,-49.0157,0.38618,-0.50563,-0.0081682,0,4.515,0.68988,0.92952,0.92952,0.0063989,2.4676,1.9145,0.14545,142.4974,
1.8642,19.0879,11.6028,188.316,0.13549,0.087496,0.98691,16.7897,10.3296,152.3074,-0.053482,0.074529,0.00073407,0.16619,0.14305,-10.8595,0.44734,-0.58787,-0.0092957,0.013316,0.013551,0.39525,0.75033,0.64589,-49.0305,0.41581,-0.54643,-0.0086405,0,4.515,0.68988,0.92952,0.92952,0.0063989,2.4676,1.9145,0.14539,142.5031,
1.8766,19.2971,11.7315,190.212,0.13636,0.08812,0.98673,16.7918,10.3314,152.1723,-0.047733,0.066962,0.00061557,0.18526,0.15686,-10.8621,0.47514,-0.62639,-0.0097214,0.014251,0.014462,0.39525,0.83647,0.70821,-49.0423,0.44165,-0.58224,-0.0090362,0,4.515,0.68988,0.92952,0.92952,0.0063989,2.4676,1.9145,0.14533,142.5087,
1.8891,19.5062,11.8601,192.1064,0.13713,0.08867,0.98658,16.7943,10.3335,152.0371,-0.041665,0.05895,0.00049227,0.20156,0.16855,-10.864,0.49867,-0.65927,-0.010062,0.015062,0.015248,0.39525,0.91006,0.761,-49.0509,0.46352,-0.61281,-0.0093527,0,4.515,0.68988,0.92952,0.92952,0.0063989,2.4676,1.9145,0.14527,142.5144,
1.9015,19.7154,11.9889,193.9991,0.13781,0.089144,0.98644,16.7969,10.3356,151.9019,-0.03533,0.050565,0.00036528,0.21499,0.17806,-10.8651,0.5178,-0.68632,-0.010315,0.015744,0.015903,0.39525,0.97068,0.80395,-49.0561,0.48131,-0.63794,-0.0095884,0,4.515,0.68988,0.92952,0.92952,0.0063989,2.4676,1.9145,0.14521,142.5201,
1.914,19.9246,12.1176,195.8901,0.13837,0.089539,0.98632,16.7996,10.3379,151.7667,-0.028785,0.04188,0.00023568,0.22547,0.18535,-10.8655,0.53242,-0.70736,-0.010481,0.016291,0.016422,0.39525,1.018,0.83685,-49.0578,0.4949,-0.65751,-0.0097421,0,4.515,0.68988,0.92952,0.92952,0.0063989,2.4676,1.9145,0.14515,142.5257,
1.9264,20.1339,12.2464,197.7795,0.13883,0.089851,0.98623,16.8025,10.3402,151.6315,-0.022087,0.03297,0.00010459,0.23296,0.19038,-10.8651,0.54247,-0.72231,-0.010557,0.0167,0.016802,0.39525,1.0518,0.85955,-49.0558,0.50423,-0.6714,-0.0098133,0,4.515,0.68988,0.92952,0.92952,0.0063989,2.4676,1.9145,0.14509,142.5314,
1.9389,20.3431,12.3752,199.6671,0.13918,0.090081,0.98616,16.8054,10.3426,151.4963,-0.015292,0.023913,-2.692e-05,0.23743,0.19313,-10.8638,0.5479,-0.7311,-0.010546,0.016967,0.01704,0.39525,1.072,0.87198,-49.05,0.50928,-0.67957,-0.0098024,0,4.515,0.68988,0.92952,0.92952,0.0063989,2.4676,1.9145,0.14503,142.537,
1.9514,20.5525,12.504,201.5531,0.13942,0.090227,0.98611,16.8084,10.345,151.3611,-0.0084586,0.014785,-0.00015774,0.23888,0.19362,-10.8617,0.54874,-0.73375,-0.010447,0.017093,0.017136,0.39525,1.0785,0.8742,-49.0404,0.51006,-0.68203,-0.0097103,0,4.515,0.68988,0.92952,0.92952,0.0063989,2.4676,1.9145,0.14497,142.5426,
1.9631,20.7495,12.6253,203.3269,0.13954,0.090287,0.98609,16.8112,10.3473,151.2339,-0.0020407,0.0061949,-0.00027929,0.23752,0.19204,-10.8589,0.54537,-0.73067,-0.010275,0.017081,0.017097,0.39525,1.0724,0.86704,-49.0279,0.50693,-0.67917,-0.0095509,0,4.515,0.68988,0.92952,0.92952,0.0063989,2.4676,1.9145,0.14491,142.5479,
1.9748,20.9467,12.7466,205.0993,0.13956,0.090273,0.98609,16.8139,10.3495,151.1067,0.0043144,-0.0023278,-0.00039839,0.23356,0.1885,-10.8554,0.53805,-0.72227,-0.01003,0.016944,0.016933,0.39525,1.0545,0.85108,-49.0122,0.50012,-0.67136,-0.0093229,0,4.515,0.68988,0.92952,0.92952,0.0063989,2.4676,1.9145,0.14485,142.5532,
1.9865,21.1438,12.868,206.8702,0.13949,0.090186,0.98611,16.8166,10.3517,150.9795,0.010561,-0.010721,-0.0005142,0.22705,0.18307,-10.8512,0.52686,-0.70868,-0.0097132,0.016684,0.016645,0.39525,1.0251,0.82654,-48.9932,0.48972,-0.65873,-0.0090286,0,4.515,0.68988,0.92952,0.92952,0.0063989,2.4676,1.9145,0.1448,142.5585,
1.9982,21.341,12.9893,208.6396,0.13932,0.090028,0.98615,16.8192,10.3538,150.8525,0.016654,-0.018925,-0.00062589,0.21807,0.17579,-10.8463,0.51194,-0.69004,-0.0093283,0.016303,0.016238,0.39525,0.98457,0.79369,-48.9711,0.47585,-0.64141,-0.0086708,0,4.515,0.68988,0.92952,0.92952,0.0063989,2.4676,1.9145,0.14474,142.5638,
2.0098,21.5351,13.1089,210.38,0.13906,0.089804,0.9862,16.8217,10.3558,150.7274,0.022461,-0.026761,-0.00073107,0.20691,0.1669,-10.8408,0.49374,-0.66697,-0.008886,0.015813,0.015723,0.39525,0.93419,0.75357,-48.9464,0.45894,-0.61996,-0.0082596,0,4.515,0.68988,0.92952,0.92952,0.0063989,2.4676,1.9145,0.14469,142.569,
2.0213,21.7293,13.2284,212.119,0.13871,0.089515,0.98628,16.824,10.3577,150.6024,0.028039,-0.034305,-0.00083079,0.19355,0.15639,-10.8348,0.47225,-0.63941,-0.0083845,0.015214,0.015099,0.39525,0.87389,0.7061,-48.9191,0.43896,-0.59434,-0.0077936,0,4.515,0.68988,0.92952,0.92952,0.0063989,2.4676,1.9145,0.14463,142.5742,
2.0329,21.9235,13.348,213.8565,0.13828,0.089164,0.98637,16.8262,10.3594,150.4775,0.03335,-0.041505,-0.0009244,0.17812,0.14434,-10.8282,0.44763,-0.60761,-0.0078281,0.01451,0.014372,0.39525,0.8042,0.65168,-48.8892,0.41608,-0.56478,-0.0072763,0,4.515,0.68988,0.92952,0.92952,0.0063989,2.4676,1.9145,0.14458,142.5794,
2.0444,22.1177,13.4675,215.5926,0.13777,0.088754,0.98648,16.8281,10.361,150.3527,0.038361,-0.048315,-0.0010113,0.16073,0.13085,-10.8211,0.42009,-0.57184,-0.007221,0.013708,0.013547,0.39525,0.72571,0.59078,-48.8571,0.39048,-0.53154,-0.006712,0,4.515,0.68988,0.92952,0.92952,0.0063989,2.4676,1.9145,0.14452,142.5846,
2.0561,22.3142,13.5885,217.3472,0.13718,0.088283,0.9866,16.8299,10.3624,150.2265,0.043089,-0.054762,-0.0010918,0.14131,0.11585,-10.8134,0.38951,-0.53193,-0.0065602,0.012801,0.01262,0.39525,0.63802,0.52308,-48.8225,0.36206,-0.49443,-0.0060978,0,4.515,0.68988,0.92952,0.92952,0.0063989,2.4676,1.9145,0.14447,142.5899,
2.0678,22.5107,13.7095,219.1003,0.13651,0.087759,0.98674,16.8314,10.3637,150.1004,0.047446,-0.060722,-0.0011643,0.1202,0.099623,-10.8053,0.35643,-0.48857,-0.0058577,0.011807,0.011606,0.39525,0.54271,0.4498,-48.786,0.3313,-0.45414,-0.0054448,0,4.515,0.68988,0.92952,0.92952,0.0063989,2.4676,1.9145,0.14441,142.5951,
2.0794,22.7072,13.8305,220.852,0.13578,0.087188,0.98689,16.8327,10.3648,149.9744,0.051403,-0.066158,-0.0012284,0.097569,0.082286,-10.7969,0.3211,-0.44213,-0.0051187,0.010732,0.010514,0.39525,0.44052,0.37152,-48.748,0.29847,-0.41097,-0.0047579,0,4.515,0.68988,0.92952,0.92952,0.0063989,2.4676,1.9145,0.14436,142.6003,
2.0911,22.9037,13.9515,222.6022,0.13499,0.086573,0.98706,16.8337,10.3656,149.8485,0.054936,-0.071035,-0.0012837,0.073591,0.063975,-10.7882,0.28381,-0.39297,-0.0043489,0.0095848,0.0093508,0.39525,0.33226,0.28885,-48.7086,0.26381,-0.36527,-0.0040424,0,4.515,0.68988,0.92952,0.92952,0.0063989,2.4676,1.9145,0.1443,142.6056,
2.1032,23.1074,14.0769,224.4143,0.13412,0.085895,0.98724,16.8344,10.3663,149.7182,0.058127,-0.075469,-0.0013314,0.04752,0.044123,-10.7789,0.2434,-0.33955,-0.0035248,0.008329,0.0080805,0.39525,0.21455,0.19921,-48.6667,0.22625,-0.31562,-0.0032763,0,4.515,0.68988,0.92952,0.92952,0.0063989,2.4676,1.9145,0.14425,142.611,
2.1153,23.311,14.2023,226.2248,0.1332,0.085182,0.98742,16.8348,10.3667,149.5879,0.060819,-0.079243,-0.0013689,0.020413,0.023536,-10.7694,0.20152,-0.28404,-0.0026801,0.0070147,0.006754,0.39525,0.092166,0.10626,-48.6239,0.18731,-0.26402,-0.0024912,0,4.515,0.68988,0.92952,0.92952,0.0063989,2.4676,1.9145,0.14419,142.6164,
2.1274,23.5147,14.3278,228.0338,0.13223,0.084439,0.98762,16.8349,10.3668,149.4578,0.062998,-0.082335,-0.0013962,-0.0075129,0.0023779,-10.7598,0.15849,-0.22689,-0.0018216,0.0056523,0.0053816,0.39525,-0.033921,0.010736,-48.5806,0.14732,-0.21089,-0.0016932,0,4.515,0.68988,0.92952,0.92952,0.0063989,2.4676,1.9145,0.14413,142.6218,
2.1395,23.7184,14.4532,229.8411,0.13123,0.083674,0.98781,16.8346,10.3667,149.3278,0.064651,-0.084728,-0.001413,-0.03604,-0.019185,-10.7502,0.11465,-0.16853,-0.00095579,0.0042526,0.0039741,0.39525,-0.16272,-0.086621,-48.5371,0.10657,-0.15666,-0.00088842,0,4.515,0.68988,0.92952,0.92952,0.0063989,2.4676,1.9145,0.14408,142.6272,
2.1525,23.9364,14.5874,231.7743,0.13014,0.082836,0.98803,16.834,10.3663,149.1887,0.065829,-0.086501,-0.0014193,-0.066995,-0.042531,-10.7399,0.067208,-0.10525,-2.8168e-05,0.0027255,0.0024417,0.39525,-0.30248,-0.19203,-48.4906,0.062471,-0.097832,-2.6182e-05,0,4.515,0.68988,0.92952,0.92952,0.0063989,2.4676,1.9145,0.14402,142.633,
2.1654,24.1544,14.7217,233.7057,0.12903,0.081987,0.98825,16.8329,10.3656,149.0498,0.066391,-0.087453,-0.0014137,-0.098112,-0.065946,-10.7297,0.019641,-0.041666,0.00089235,0.0011863,0.00090339,0.39525,-0.44298,-0.29774,-48.4445,0.018257,-0.03873,0.00082946,0,4.515,0.68988,0.92952,0.92952,0.0063989,2.4676,1.9145,0.14395,142.6388,
2.1784,24.3725,14.8559,235.6353,0.12791,0.081134,0.98846,16.8314,10.3646,148.911,0.066339,-0.087582,-0.0013963,-0.12922,-0.08929,-10.7204,-0.027641,0.021671,0.001798,0.00041964,0.00069158,0.39525,-0.58344,-0.40315,-48.4025,-0.025693,0.020144,0.0016713,0,4.515,0.68988,0.92952,0.92952,0.0063989,2.4676,1.9145,0.14389,142.6445,
2.1913,24.5904,14.9902,237.563,0.12679,0.080286,0.98868,16.8296,10.3633,148.7724,0.065678,-0.086895,-0.0013673,-0.16024,-0.11248,-10.7135,-0.074242,0.084227,0.0026812,0.0019297,0.0022148,0.39525,-0.7235,-0.50787,-48.3715,-0.069009,0.078291,0.0024922,0,4.515,0.68988,0.92952,0.92952,0.0063989,2.4676,1.9145,0.14383,142.6503,
2.2062,24.8403,15.144,239.7703,0.12553,0.07933,0.98891,16.8269,10.3615,148.6135,0.064187,-0.085122,-0.0013202,-0.195,-0.13841,-10.706,-0.12632,0.1543,0.0036567,0.003666,0.003946,0.39525,-0.88042,-0.6249,-48.3374,-0.11741,0.14342,0.0033989,0,4.515,0.68988,0.92952,0.92952,0.0063989,2.4676,1.9145,0.14376,142.6569,
2.221,25.09,15.2978,241.9753,0.1243,0.078401,0.98914,16.8238,10.3592,148.4548,0.061938,-0.082326,-0.0012589,-0.22853,-0.16335,-10.6987,-0.17643,0.2219,0.0045828,0.005357,0.005628,0.39525,-1.0318,-0.73751,-48.3047,-0.16399,0.20626,0.0042598,0,4.515,0.68988,0.92952,0.92952,0.0063989,2.4676,1.9145,0.1437,142.6635,
2.2359,25.3397,15.4516,244.1779,0.12312,0.07751,0.98936,16.8201,10.3566,148.2961,0.058962,-0.078549,-0.0011844,-0.26047,-0.18704,-10.6918,-0.22405,0.28632,0.0054499,0.0069824,0.0072411,0.39525,-1.176,-0.84448,-48.2735,-0.20826,0.26614,0.0050658,0,4.515,0.68988,0.92952,0.92952,0.0063989,2.4676,1.9145,0.14363,142.6701,
2.2507,25.5894,15.6053,246.3782,0.122,0.076668,0.98956,16.816,10.3537,148.1376,0.0553,-0.073844,-0.0010975,-0.2905,-0.20924,-10.6853,-0.26868,0.34689,0.0062492,0.0085246,0.0087678,0.39525,-1.3116,-0.94472,-48.2441,-0.24975,0.32244,0.0058088,0,4.515,0.68988,0.92952,0.92952,0.0063989,2.4676,1.9145,0.14356,142.6767,
2.2654,25.8363,15.7573,248.5523,0.12097,0.075892,0.98975,16.8116,10.3504,147.9809,0.051051,-0.068337,-0.0010004,-0.31802,-0.22951,-10.6792,-0.30947,0.40243,0.0069654,0.009952,0.010177,0.39525,-1.4359,-1.0362,-48.2167,-0.28766,0.37406,0.0064745,0,4.515,0.68988,0.92952,0.92952,0.0063989,2.4676,1.9145,0.14349,142.6832,
2.2801,26.0831,15.9093,250.7241,0.12002,0.075183,0.98992,16.8067,10.3469,147.8242,0.04623,-0.06205,-0.0008933,-0.34309,-0.24791,-10.6735,-0.3465,0.45307,0.0076007,0.011267,0.011472,0.39525,-1.549,-1.1193,-48.191,-0.32208,0.42113,0.007065,0,4.515,0.68988,0.92952,0.92952,0.0063989,2.4676,1.9145,0.14342,142.6897,
2.2947,26.3299,16.0612,252.8936,0.11917,0.074548,0.99007,16.8015,10.3432,147.6677,0.040895,-0.055058,-0.00077756,-0.36547,-0.26425,-10.6682,-0.37945,0.49833,0.0081493,0.012457,0.012638,0.39525,-1.6501,-1.1931,-48.1671,-0.3527,0.46321,0.0075749,0,4.515,0.68988,0.92952,0.92952,0.0063989,2.4676,1.9145,0.14335,142.6962,
2.3094,26.5766,16.213,255.0608,0.11842,0.073993,0.9902,16.796,10.3392,147.5112,0.035108,-0.047443,-0.00065445,-0.38496,-0.27839,-10.6633,-0.40801,0.53782,0.0086063,0.013509,0.013665,0.39525,-1.7381,-1.2569,-48.145,-0.37925,0.49991,0.0079997,0,4.515,0.68988,0.92952,0.92952,0.0063989,2.4676,1.9145,0.14329,142.7026,
2.3241,26.8231,16.3648,257.2257,0.11779,0.073526,0.99031,16.7902,10.335,147.3548,0.028935,-0.039292,-0.00052529,-0.40139,-0.29021,-10.6588,-0.43194,0.5712,0.0089681,0.014414,0.014543,0.39525,-1.8123,-1.3103,-48.1246,-0.4015,0.53094,0.008336,0,4.515,0.68988,0.92952,0.92952,0.0063989,2.4676,1.9145,0.14322,142.7091,
2.3388,27.0697,16.5165,259.3883,0.11728,0.073152,0.9904,16.7842,10.3307,147.1984,0.022446,-0.030699,-0.00039153,-0.41463,-0.29961,-10.6547,-0.45106,0.59819,0.0092319,0.015163,0.015264,0.39525,-1.872,-1.3527,-48.1059,-0.41927,0.55603,0.0085812,0,4.515,0.68988,0.92952,0.92952,0.0063989,2.4676,1.9145,0.14315,142.7156,
2.3535,27.3161,16.6682,261.5487,0.1169,0.072873,0.99047,16.7781,10.3262,147.0422,0.015713,-0.021757,-0.00025465,-0.42456,-0.30653,-10.6509,-0.46523,0.6186,0.0093962,0.01575,0.015821,0.39525,-1.9169,-1.384,-48.089,-0.43243,0.57499,0.008734,0,4.515,0.68988,0.92952,0.92952,0.0063989,2.4676,1.9145,0.14309,142.722,
2.3682,27.5624,16.8198,263.7067,0.11665,0.072695,0.99051,16.7718,10.3217,146.8859,0.0088082,-0.012565,-0.0001161,-0.43114,-0.31092,-10.6476,-0.47436,0.6323,0.0094605,0.016169,0.016209,0.39525,-1.9466,-1.4038,-48.0737,-0.44093,0.58773,0.0087937,0,4.515,0.68988,0.92952,0.92952,0.0063989,2.4676,1.9145,0.14302,142.7285,
2.381,27.7782,16.9526,265.596,0.11654,0.072621,0.99053,16.7662,10.3177,146.749,0.002675,-0.004381,5.5638e-06,-0.43412,-0.31268,-10.6449,-0.47821,0.63876,0.0094349,0.016396,0.016409,0.39525,-1.9601,-1.4117,-48.0616,-0.44451,0.59374,0.0087699,0,4.515,0.68988,0.92952,0.92952,0.0063989,2.4676,1.9145,0.14296,142.7341,
2.3939,27.9939,17.0853,267.4835,0.11654,0.072626,0.99053,16.7606,10.3137,146.6122,-0.0034829,0.0038525,0.00012641,-0.43451,-0.3125,-10.6425,-0.4782,0.64004,0.0093339,0.01649,0.016477,0.39525,-1.9618,-1.4109,-48.0508,-0.44449,0.59493,0.008676,0,4.515,0.68988,0.92952,0.92952,0.0063989,2.4676,1.9145,0.1429,142.7398,
2.4068,28.2095,17.218,269.3693,0.11664,0.07271,0.99051,16.755,10.3096,146.4754,-0.0096157,0.012069,0.00024547,-0.43233,-0.3104,-10.6404,-0.47436,0.6362,0.0091591,0.016453,0.016412,0.39525,-1.952,-1.4015,-48.0412,-0.44093,0.59136,0.0085135,0,4.515,0.68988,0.92952,0.92952,0.0063989,2.4676,1.9145,0.14284,142.7454,
2.4196,28.4251,17.3507,271.2532,0.11685,0.072872,0.99047,16.7495,10.3057,146.3386,-0.015675,0.020204,0.00036181,-0.42764,-0.30643,-10.6385,-0.46678,0.62733,0.0089126,0.016286,0.016217,0.39525,-1.9308,-1.3835,-48.0328,-0.43388,0.58311,0.0082844,0,4.515,0.68988,0.92952,0.92952,0.0063989,2.4676,1.9145,0.14278,142.751,
2.432,28.6323,17.4782,273.0634,0.11714,0.0731,0.99042,16.7442,10.3019,146.2071,-0.021389,0.027891,0.0004703,-0.42081,-0.30088,-10.6369,-0.45606,0.61418,0.0086105,0.016003,0.015909,0.39525,-1.8999,-1.3585,-48.0258,-0.42392,0.57089,0.0080036,0,4.515,0.68988,0.92952,0.92952,0.0063989,2.4676,1.9145,0.14273,142.7565,
2.4444,28.8395,17.6056,274.8718,0.11753,0.073397,0.99035,16.7391,10.2982,146.0755,-0.026949,0.035387,0.00057468,-0.41178,-0.29371,-10.6356,-0.4421,0.59664,0.0082475,0.015604,0.015485,0.39525,-1.8592,-1.3261,-48.0199,-0.41094,0.55459,0.0076662,0,4.515,0.68988,0.92952,0.92952,0.0063989,2.4676,1.9145,0.14267,142.7619,
2.4568,29.0466,17.7331,276.6787,0.11801,0.073761,0.99027,16.7341,10.2946,145.9441,-0.032318,0.04264,0.00067418,-0.40066,-0.28498,-10.6346,-0.42503,0.57491,0.0078269,0.015093,0.01495,0.39525,-1.809,-1.2867,-48.0151,-0.39507,0.53439,0.0072752,0,4.515,0.68988,0.92952,0.92952,0.0063989,2.4676,1.9145,0.14261,142.7673,
2.4691,29.2537,17.8604,278.4839,0.11857,0.07419,0.99017,16.7292,10.2912,145.8126,-0.037456,0.049599,0.00076815,-0.38754,-0.27478,-10.6337,-0.40502,0.54919,0.0073522,0.014474,0.014307,0.39525,-1.7497,-1.2406,-48.0114,-0.37647,0.51048,0.006834,0,4.515,0.68988,0.92952,0.92952,0.0063989,2.4676,1.9145,0.14256,142.7727,
2.4815,29.4607,17.9878,280.288,0.11922,0.074681,0.99006,16.7245,10.2879,145.6811,-0.042332,0.056219,0.00085597,-0.37253,-0.26319,-10.6332,-0.38224,0.51969,0.0068275,0.013751,0.013563,0.39525,-1.682,-1.1883,-48.0087,-0.3553,0.48306,0.0063463,0,4.515,0.68988,0.92952,0.92952,0.0063989,2.4676,1.9145,0.1425,142.7781,
2.4939,29.6677,18.1151,282.0905,0.11995,0.075229,0.98993,16.72,10.2847,145.5496,-0.046909,0.062451,0.000937,-0.35578,-0.25031,-10.6328,-0.35689,0.4867,0.0062571,0.012932,0.012723,0.39525,-1.6064,-1.1302,-48.007,-0.33173,0.45239,0.0058161,0,4.515,0.68988,0.92952,0.92952,0.0063989,2.4676,1.9145,0.14245,142.7835,
2.5063,29.8747,18.2424,283.8913,0.12075,0.075832,0.98978,16.7157,10.2817,145.4181,-0.051157,0.068254,0.0010107,-0.33742,-0.23626,-10.6326,-0.32919,0.45048,0.0056456,0.012023,0.011794,0.39525,-1.5235,-1.0667,-48.0064,-0.30599,0.41873,0.0052477,0,4.515,0.68988,0.92952,0.92952,0.0063989,2.4676,1.9145,0.14239,142.7888,
2.5187,30.0816,18.3697,285.6906,0.12162,0.076484,0.98963,16.7116,10.2788,145.2866,-0.05505,0.073591,0.0010766,-0.31761,-0.22115,-10.6327,-0.29936,0.41135,0.0049979,0.01103,0.010783,0.39525,-1.434,-0.99848,-48.0067,-0.27826,0.38235,0.0046456,0,4.515,0.68988,0.92952,0.92952,0.0063989,2.4676,1.9145,0.14234,142.7942,
2.5313,30.2937,18.5001,287.5341,0.12257,0.0772,0.98945,16.7077,10.2761,145.1517,-0.058645,0.078544,0.0011357,-0.29594,-0.20467,-10.633,-0.26682,0.3685,0.0043012,0.0099334,0.0096697,0.39525,-1.3362,-0.9241,-48.0081,-0.24801,0.34253,0.003998,0,4.515,0.68988,0.92952,0.92952,0.0063989,2.4676,1.9145,0.14228,142.7997,
2.544,30.5058,18.6306,289.376,0.12358,0.077959,0.98927,16.7041,10.2736,145.0168,-0.061817,0.082938,0.0011857,-0.27309,-0.18735,-10.6335,-0.23256,0.32328,0.0035772,0.0087662,0.0084877,0.39525,-1.233,-0.84587,-48.0104,-0.21617,0.30049,0.0033251,0,4.515,0.68988,0.92952,0.92952,0.0063989,2.4676,1.9145,0.14222,142.8052,
2.5567,30.7178,18.761,291.2162,0.12465,0.078755,0.98907,16.7008,10.2714,144.8819,-0.064544,0.086744,0.0012264,-0.24924,-0.16931,-10.6342,-0.19687,0.27604,0.0028318,0.0075378,0.0072464,0.39525,-1.1253,-0.76443,-48.0136,-0.183,0.25658,0.0026322,0,4.515,0.68988,0.92952,0.92952,0.0063989,2.4676,1.9145,0.14216,142.8107,
2.5694,30.9298,18.8914,293.0546,0.12576,0.079582,0.98886,16.6978,10.2693,144.747,-0.066811,0.089939,0.0012575,-0.22459,-0.1507,-10.6351,-0.16004,0.22717,0.0020708,0.0062576,0.0059555,0.39525,-1.014,-0.68042,-48.0176,-0.14876,0.21115,0.0019248,0,4.515,0.68988,0.92952,0.92952,0.0063989,2.4676,1.9145,0.14211,142.8162,
2.5828,31.1534,19.0289,294.9922,0.12697,0.080482,0.98864,16.695,10.2675,144.6047,-0.068689,0.092629,0.0012798,-0.19793,-0.13062,-10.6363,-0.12025,0.17426,0.0012574,0.0048623,0.004551,0.39525,-0.89363,-0.58975,-48.0227,-0.11178,0.16198,0.0011688,0,4.515,0.68988,0.92952,0.92952,0.0063989,2.4676,1.9145,0.14205,142.822,
2.5962,31.377,19.1664,296.9278,0.1282,0.081403,0.9884,16.6925,10.2658,144.4624,-0.070029,0.094603,0.0012912,-0.17081,-0.11024,-10.6376,-0.079862,0.12044,0.00044006,0.003433,0.0031152,0.39525,-0.7712,-0.49774,-48.0286,-0.074233,0.11195,0.00040905,0,4.515,0.68988,0.92952,0.92952,0.0063989,2.4676,1.9145,0.14199,142.8278,
2.6096,31.6005,19.3039,298.8616,0.12946,0.082338,0.98816,16.6904,10.2645,144.3201,-0.070827,0.095852,0.0012916,-0.14347,-0.089741,-10.639,-0.039205,0.066137,-0.00037443,0.0019833,0.0016623,0.39525,-0.64778,-0.40518,-48.0351,-0.036441,0.061476,-0.00034804,0,4.515,0.68988,0.92952,0.92952,0.0063989,2.4676,1.9145,0.14193,142.8336,
2.623,31.824,19.4413,300.7934,0.13074,0.08328,0.98791,16.6886,10.2634,144.1777,-0.071079,0.096374,0.0012812,-0.11615,-0.069287,-10.6406,0.0013799,0.011824,-0.0011794,0.00054277,0.0002594,0.39525,-0.5244,-0.31283,-48.0421,0.0012827,0.010991,-0.0010963,0,4.515,0.68988,0.92952,0.92952,0.0063989,2.4676,1.9145,0.14187,142.8394,
2.6378,32.0714,19.5935,302.9297,0.13214,0.084321,0.98764,16.6871,10.2626,144.0201,-0.070729,0.096107,0.0012572,-0.086433,-0.047067,-10.6443,0.045819,-0.047777,-0.0020515,0.0011209,0.0014408,0.39525,-0.39025,-0.21251,-48.0591,0.04259,-0.04441,-0.0019069,0,4.515,0.68988,0.92952,0.92952,0.0063989,2.4676,1.9145,0.1418,142.8458,
2.6527,32.3188,19.7456,305.0637,0.13354,0.085353,0.98736,16.6861,10.262,143.8624,-0.069726,0.094963,0.0012205,-0.057424,-0.025409,-10.649,0.089316,-0.10625,-0.0028953,0.0027112,0.0030301,0.39525,-0.25927,-0.11472,-48.0802,0.083021,-0.098763,-0.0026912,0,4.515,0.68988,0.92952,0.92952,0.0063989,2.4676,1.9145,0.14174,142.8521,
2.6675,32.5662,19.8978,307.1953,0.13492,0.086364,0.98709,16.6854,10.2618,143.7046,-0.068087,0.092965,0.0011716,-0.029278,-0.004447,-10.6536,0.13145,-0.16302,-0.0037026,0.0042735,0.0045862,0.39525,-0.13219,-0.020078,-48.1009,0.12218,-0.15153,-0.0034417,0,4.515,0.68988,0.92952,0.92952,0.0063989,2.4676,1.9145,0.14167,142.8585,
2.6823,32.8136,20.0499,309.3246,0.13626,0.087347,0.98682,16.6852,10.2619,143.5467,-0.065837,0.09014,0.0011109,-0.0022606,0.015623,-10.658,0.17181,-0.21755,-0.004466,0.0057871,0.0060905,0.39525,-0.010207,0.070537,-48.121,0.1597,-0.20222,-0.0041512,0,4.515,0.68988,0.92952,0.92952,0.0063989,2.4676,1.9145,0.14161,142.8649,
2.7018,33.139,20.2501,312.1225,0.13794,0.088581,0.98647,16.6855,10.2625,143.339,-0.061993,0.08523,0.0010147,0.031152,0.040362,-10.6635,0.22159,-0.28503,-0.0053914,0.0076789,0.0079658,0.39525,0.14065,0.18224,-48.1456,0.20597,-0.26494,-0.0050114,0,4.515,0.68988,0.92952,0.92952,0.0063989,2.4676,1.9145,0.14152,142.8732,
2.7213,33.4645,20.4502,314.9163,0.13953,0.089732,0.98614,16.6864,10.2635,143.1311,-0.057222,0.07906,0.0009014,0.061658,0.062851,-10.6683,0.26686,-0.34666,-0.0062138,0.0094277,0.0096938,0.39525,0.27839,0.28377,-48.1675,0.24805,-0.32222,-0.0057758,0,4.515,0.68988,0.92952,0.92952,0.0063989,2.4676,1.9145,0.14143,142.8816,
2.7408,33.79,20.6504,317.7061,0.14098,0.090782,0.98584,16.6879,10.2649,142.9232,-0.051617,0.071752,0.00077304,0.088796,0.082751,-10.6724,0.30693,-0.40148,-0.0069206,0.011005,0.011246,0.39525,0.40091,0.37362,-48.186,0.2853,-0.37318,-0.0064328,0,4.515,0.68988,0.92952,0.92952,0.0063989,2.4676,1.9145,0.14135,142.8899,
2.7603,34.1155,20.8507,320.4918,0.14228,0.091717,0.98557,16.6898,10.2667,142.7152,-0.045286,0.063447,0.0006321,0.11218,0.099781,-10.6756,0.34122,-0.4487,-0.0075017,0.012385,0.012598,0.39525,0.5065,0.45051,-48.2003,0.31717,-0.41708,-0.006973,0,4.515,0.68988,0.92952,0.92952,0.0063989,2.4676,1.9145,0.14126,142.8983,
2.7776,34.4034,21.0278,322.9524,0.14329,0.092437,0.98536,16.6919,10.2685,142.5311,-0.039175,0.055395,0.00049906,0.12949,0.11227,-10.6775,0.36635,-0.48361,-0.0079048,0.013425,0.01361,0.39525,0.58464,0.5069,-48.2091,0.34053,-0.44952,-0.0073476,0,4.515,0.68988,0.92952,0.92952,0.0063989,2.4676,1.9145,0.14119,142.9056,
2.7948,34.6914,21.205,325.4098,0.14415,0.093049,0.98517,16.6943,10.2705,142.3471,-0.032674,0.046799,0.00036,0.14344,0.12221,-10.6786,0.38632,-0.51169,-0.0081993,0.014281,0.014437,0.39525,0.64762,0.55179,-48.2139,0.35909,-0.47562,-0.0076214,0,4.515,0.68988,0.92952,0.92952,0.0063989,2.4676,1.9145,0.14111,142.913,
2.8121,34.9795,21.3822,327.8641,0.14487,0.093548,0.98502,16.6969,10.2727,142.163,-0.025876,0.03778,0.00021678,0.15391,0.12952,-10.6787,0.40096,-0.53268,-0.008383,0.014944,0.01507,0.39525,0.6949,0.58479,-48.2143,0.3727,-0.49513,-0.0077921,0,4.515,0.68988,0.92952,0.92952,0.0063989,2.4676,1.9145,0.14104,142.9203,
2.8293,35.2676,21.5594,330.3152,0.14544,0.093928,0.9849,16.6996,10.275,141.9789,-0.018871,0.028461,7.1338e-05,0.16083,0.13415,-10.6778,0.41015,-0.54641,-0.008455,0.015408,0.015501,0.39525,0.72614,0.60569,-48.2103,0.38124,-0.5079,-0.007859,0,4.515,0.68988,0.92952,0.92952,0.0063989,2.4676,1.9145,0.14096,142.9276,
2.8433,35.5008,21.703,332.2969,0.14577,0.094148,0.98483,16.7018,10.2769,141.83,-0.013115,0.020784,-4.6663e-05,0.16381,0.13592,-10.6763,0.41359,-0.55217,-0.0084318,0.015633,0.015701,0.39525,0.73959,0.61369,-48.2036,0.38443,-0.51325,-0.0078375,0,4.515,0.68988,0.92952,0.92952,0.0063989,2.4676,1.9145,0.1409,142.9336,
2.8573,35.734,21.8465,334.2765,0.14601,0.094289,0.98478,16.7041,10.2788,141.681,-0.0073358,0.01306,-0.00016383,0.16445,0.13594,-10.6742,0.41345,-0.55315,-0.0083368,0.015724,0.015765,0.39525,0.74248,0.61376,-48.1939,0.38431,-0.51417,-0.0077492,0,4.515,0.68988,0.92952,0.92952,0.0063989,2.4676,1.9145,0.14084,142.9395,
2.8712,35.9673,21.99,336.2541,0.14613,0.09435,0.98476,16.7064,10.2807,141.5321,-0.0015836,0.0053563,-0.00027918,0.16277,0.13422,-10.6714,0.40978,-0.54941,-0.0081716,0.015679,0.015694,0.39525,0.73493,0.606,-48.1812,0.3809,-0.51068,-0.0075956,0,4.515,0.68988,0.92952,0.92952,0.0063989,2.4676,1.9145,0.14078,142.9454,
2.8852,36.2007,22.1336,338.2296,0.14616,0.094332,0.98475,16.7087,10.2825,141.3832,0.0040934,-0.0022629,-0.00039176,0.15884,0.13081,-10.6679,0.40267,-0.54102,-0.0079383,0.015502,0.01549,0.39525,0.71714,0.59059,-48.1656,0.37429,-0.50289,-0.0073788,0,4.515,0.68988,0.92952,0.92952,0.0063989,2.4676,1.9145,0.14072,142.9513,
2.8985,36.4224,22.2701,340.1052,0.14608,0.094243,0.98477,16.7107,10.2842,141.2418,0.0093759,-0.0093678,-0.00049532,0.15305,0.12604,-10.664,0.39281,-0.52888,-0.007656,0.015211,0.015175,0.39525,0.69102,0.56906,-48.148,0.36513,-0.4916,-0.0071164,0,4.515,0.68988,0.92952,0.92952,0.0063989,2.4676,1.9145,0.14066,142.9569,
2.9117,36.6443,22.4066,341.9789,0.14591,0.094085,0.98481,16.7127,10.2859,141.1004,0.014508,-0.016285,-0.00059474,0.14534,0.11984,-10.6596,0.38005,-0.5128,-0.0073175,0.014805,0.014745,0.39525,0.65623,0.54108,-48.128,0.35326,-0.47666,-0.0068017,0,4.515,0.68988,0.92952,0.92952,0.0063989,2.4676,1.9145,0.1406,142.9625,
2.925,36.8661,22.5432,343.8508,0.14566,0.093862,0.98487,16.7146,10.2874,140.9591,0.019452,-0.022964,-0.00068932,0.1358,0.11228,-10.6546,0.3645,-0.49297,-0.0069259,0.014287,0.014204,0.39525,0.61315,0.50694,-48.1057,0.33881,-0.45823,-0.0064378,0,4.515,0.68988,0.92952,0.92952,0.0063989,2.4676,1.9145,0.14055,142.9681,
2.9383,37.088,22.6797,345.7208,0.14532,0.093575,0.98495,16.7163,10.2888,140.8178,0.024172,-0.029355,-0.00077838,0.12452,0.10343,-10.6492,0.34634,-0.46958,-0.0064848,0.013663,0.013558,0.39525,0.56219,0.46697,-48.0811,0.32193,-0.43648,-0.0060277,0,4.515,0.68988,0.92952,0.92952,0.0063989,2.4676,1.9145,0.14049,142.9737,
2.9516,37.3099,22.8163,347.5896,0.14489,0.093228,0.98505,16.7179,10.2901,140.6766,0.028637,-0.035416,-0.0008613,0.11159,0.093362,-10.6433,0.32571,-0.44284,-0.0059978,0.012936,0.01281,0.39525,0.50383,0.42153,-48.0545,0.30275,-0.41163,-0.005575,0,4.515,0.68988,0.92952,0.92952,0.0063989,2.4676,1.9145,0.14043,142.9793,
2.9648,37.5319,22.953,349.4565,0.14439,0.092824,0.98516,16.7193,10.2913,140.5354,0.032812,-0.041102,-0.00093747,0.097147,0.082181,-10.637,0.30282,-0.413,-0.0054692,0.012114,0.011969,0.39525,0.43862,0.37105,-48.0261,0.28147,-0.38389,-0.0050837,0,4.515,0.68988,0.92952,0.92952,0.0063989,2.4676,1.9145,0.14038,142.9849,
2.9781,37.7539,23.0896,351.3215,0.14382,0.092367,0.98528,16.7205,10.2923,140.3944,0.036669,-0.046371,-0.0010064,0.081312,0.06998,-10.6304,0.27785,-0.38033,-0.0049034,0.011204,0.01104,0.39525,0.36712,0.31596,-47.9961,0.25827,-0.35352,-0.0045578,0,4.515,0.68988,0.92952,0.92952,0.0063989,2.4676,1.9145,0.14032,142.9905,
2.9914,37.9759,23.2263,353.1846,0.14318,0.091862,0.98542,16.7214,10.2932,140.2534,0.040182,-0.05119,-0.0010675,0.06422,0.056863,-10.6234,0.25103,-0.34509,-0.0043052,0.010212,0.010031,0.39525,0.28995,0.25674,-47.9646,0.23334,-0.32077,-0.0040017,0,4.515,0.68988,0.92952,0.92952,0.0063989,2.4676,1.9145,0.14026,142.996,
3.005,38.2039,23.3666,355.0962,0.14247,0.091298,0.98558,16.7222,10.2938,140.1087,0.043407,-0.055635,-0.0011219,0.045509,0.042552,-10.616,0.22179,-0.30656,-0.003662,0.0091169,0.0089206,0.39525,0.20547,0.19212,-47.9311,0.20615,-0.28495,-0.0034038,0,4.515,0.68988,0.92952,0.92952,0.0063989,2.4676,1.9145,0.1402,143.0017,
3.0187,38.432,23.507,357.0058,0.14169,0.090693,0.98575,16.7227,10.2943,139.9641,0.046224,-0.059541,-0.0011673,0.025787,0.027514,-10.6083,0.19107,-0.26597,-0.0029949,0.0079538,0.0077438,0.39525,0.11643,0.12423,-47.8965,0.17761,-0.24722,-0.0027838,0,4.515,0.68988,0.92952,0.92952,0.0063989,2.4676,1.9145,0.14015,143.0074,
3.0323,38.66,23.6474,358.9135,0.14087,0.090053,0.98592,16.7229,10.2946,139.8196,0.048613,-0.062881,-0.0012035,0.0052209,0.011877,-10.6005,0.15915,-0.22368,-0.0023094,0.0067321,0.0065105,0.39525,0.023572,0.053623,-47.8612,0.14793,-0.20791,-0.0021467,0,4.515,0.68988,0.92952,0.92952,0.0063989,2.4676,1.9145,0.14009,143.0132,
3.0459,38.8881,23.7878,360.8191,0.14001,0.089383,0.98611,16.7228,10.2946,139.6753,0.05056,-0.065635,-0.0012302,-0.016017,-0.0042316,-10.5926,0.12628,-0.18003,-0.0016112,0.0054619,0.0052307,0.39525,-0.072319,-0.019106,-47.8254,0.11738,-0.16734,-0.0014977,0,4.515,0.68988,0.92952,0.92952,0.0063989,2.4676,1.9145,0.14003,143.0188,
3.0604,39.1293,23.9363,362.8333,0.13906,0.088649,0.98631,16.7224,10.2945,139.5226,0.052127,-0.067893,-0.0012481,-0.039028,-0.021641,-10.5841,0.090768,-0.13276,-0.00086467,0.0040765,0.0038375,0.39525,-0.17621,-0.097711,-47.7872,0.08437,-0.1234,-0.00080372,0,4.515,0.68988,0.92952,0.92952,0.0063989,2.4676,1.9145,0.13997,143.0249,
3.0748,39.3706,24.0849,364.8453,0.13808,0.087897,0.98651,16.7217,10.294,139.3701,0.053177,-0.069463,-0.0012552,-0.062387,-0.039273,-10.5756,0.054819,-0.084809,-0.00011664,0.0026613,0.0024172,0.39525,-0.28168,-0.17732,-47.749,0.050955,-0.078831,-0.00010842,0,4.515,0.68988,0.92952,0.92952,0.0063989,2.4676,1.9145,0.13991,143.0309,
3.0892,39.6119,24.2334,366.8551,0.13709,0.087133,0.98672,16.7206,10.2933,139.2177,0.053708,-0.070339,-0.0012515,-0.085885,-0.056968,-10.5672,0.018751,-0.036593,0.00062634,0.0012322,0.00098742,0.39525,-0.38777,-0.25721,-47.711,0.017429,-0.034014,0.00058219,0,4.515,0.68988,0.92952,0.92952,0.0063989,2.4676,1.9145,0.13985,143.0369,
3.1037,39.8531,24.3819,368.8627,0.13609,0.086365,0.98693,16.7192,10.2924,139.0655,0.053719,-0.07052,-0.0012372,-0.10937,-0.074607,-10.5593,-0.017124,0.011465,0.0013579,0.00027483,0.00049746,0.39525,-0.4938,-0.33685,-47.6752,-0.015917,0.010657,0.0012622,0,4.515,0.68988,0.92952,0.92952,0.0063989,2.4676,1.9145,0.13979,143.0429,
3.1198,40.1221,24.5475,371.0992,0.13497,0.085513,0.98715,16.7172,10.291,138.8957,0.053125,-0.069908,-0.0012089,-0.13552,-0.094168,-10.5527,-0.056532,0.064376,0.0021529,0.0018257,0.0020716,0.39525,-0.61187,-0.42517,-47.6455,-0.052548,0.059839,0.0020012,0,4.515,0.68988,0.92952,0.92952,0.0063989,2.4676,1.9145,0.13972,143.0496,
3.1358,40.3911,24.7131,373.3329,0.13387,0.084675,0.98737,16.7149,10.2893,138.7261,0.051905,-0.068455,-0.001168,-0.16105,-0.11322,-10.5464,-0.094905,0.11602,0.0029178,0.0033953,0.0036367,0.39525,-0.72714,-0.51117,-47.617,-0.088215,0.10784,0.0027122,0,4.515,0.68988,0.92952,0.92952,0.0063989,2.4676,1.9145,0.13965,143.0563,
3.1519,40.6601,24.8786,375.564,0.1328,0.083862,0.98759,16.7121,10.2874,138.5566,0.050079,-0.066184,-0.0011152,-0.18569,-0.13155,-10.5403,-0.13185,0.16587,0.0036448,0.004925,0.0051586,0.39525,-0.83838,-0.59396,-47.5895,-0.12255,0.15418,0.0033879,0,4.515,0.68988,0.92952,0.92952,0.0063989,2.4676,1.9145,0.13958,143.0629,
3.168,40.929,25.0442,377.7923,0.13178,0.083082,0.98779,16.7089,10.2851,138.3872,0.047672,-0.063129,-0.001051,-0.20918,-0.14899,-10.5345,-0.16699,0.21341,0.0043267,0.0063975,0.0066204,0.39525,-0.94446,-0.67268,-47.5631,-0.15522,0.19837,0.0040218,0,4.515,0.68988,0.92952,0.92952,0.0063989,2.4676,1.9145,0.13952,143.0696,
3.1904,41.3033,25.2745,380.8898,0.13044,0.082069,0.98805,16.7038,10.2815,138.1515,0.043415,-0.057648,-0.00094418,-0.23956,-0.17144,-10.5268,-0.21227,0.27491,0.0051888,0.0083234,0.0085271,0.39525,-1.0816,-0.77406,-47.5286,-0.19731,0.25554,0.004823,0,4.515,0.68988,0.92952,0.92952,0.0063989,2.4676,1.9145,0.13942,143.0789,
3.2128,41.6774,25.5048,383.982,0.12924,0.081161,0.98829,16.6982,10.2774,137.916,0.038199,-0.05086,-0.0008193,-0.26669,-0.1914,-10.5197,-0.25256,0.3299,0.0059347,0.01007,0.01025,0.39525,-1.2041,-0.86416,-47.4966,-0.23476,0.30665,0.0055164,0,4.515,0.68988,0.92952,0.92952,0.0063989,2.4676,1.9145,0.13933,143.0881,
3.2352,42.0514,25.735,387.069,0.1282,0.080379,0.98849,16.6919,10.273,137.6806,0.032142,-0.042923,-0.00067922,-0.29007,-0.20849,-10.5133,-0.28714,0.37739,0.0065514,0.011605,0.011756,0.39525,-1.3097,-0.94133,-47.4674,-0.2669,0.35079,0.0060897,0,4.515,0.68988,0.92952,0.92952,0.0063989,2.4676,1.9145,0.13923,143.0973,
3.2576,42.4253,25.9651,390.1507,0.12735,0.079739,0.98865,16.6852,10.2681,137.4454,0.02538,-0.034013,-0.00052693,-0.30931,-0.22243,-10.5074,-0.31542,0.41659,0.0070288,0.012898,0.013018,0.39525,-1.3966,-1.0043,-47.441,-0.29319,0.38723,0.0065334,0,4.515,0.68988,0.92952,0.92952,0.0063989,2.4676,1.9145,0.13914,143.1066,
3.2757,42.7264,26.1504,392.6301,0.12681,0.079337,0.98875,16.6795,10.264,137.2559,0.019518,-0.026257,-0.00039737,-0.3216,-0.23122,-10.5031,-0.33334,0.44173,0.0073074,0.013748,0.013841,0.39525,-1.452,-1.044,-47.4217,-0.30985,0.41059,0.0067923,0,4.515,0.68988,0.92952,0.92952,0.0063989,2.4676,1.9145,0.13907,143.114,
3.2937,43.0275,26.3357,395.1061,0.12641,0.079043,0.98882,16.6736,10.2598,137.0665,0.013372,-0.018101,-0.00026366,-0.33087,-0.23774,-10.4993,-0.34673,0.46084,0.0074884,0.014417,0.014481,0.39525,-1.4939,-1.0734,-47.4042,-0.32229,0.42836,0.0069606,0,4.515,0.68988,0.92952,0.92952,0.0063989,2.4676,1.9145,0.13899,143.1214,
3.3118,43.3284,26.5208,397.5787,0.12616,0.07886,0.98887,16.6676,10.2555,136.8772,0.0070276,-0.0096563,-0.00012761,-0.33705,-0.24193,-10.4958,-0.35548,0.47378,0.007571,0.014898,0.014932,0.39525,-1.5218,-1.0923,-47.3885,-0.33043,0.44039,0.0070374,0,4.515,0.68988,0.92952,0.92952,0.0063989,2.4676,1.9145,0.13892,143.1288,
3.3298,43.6292,26.7059,400.0479,0.12607,0.078792,0.98889,16.6615,10.2511,136.6879,0.00056677,-0.0010338,9.045e-06,-0.34012,-0.24379,-10.4927,-0.35957,0.48049,0.0075555,0.015186,0.015189,0.39525,-1.5356,-1.1007,-47.3745,-0.33422,0.44662,0.0070229,0,4.515,0.68988,0.92952,0.92952,0.0063989,2.4676,1.9145,0.13884,143.1361,
3.3446,43.8749,26.8571,402.0629,0.12611,0.078822,0.98888,16.6564,10.2475,136.5333,-0.0047399,0.0060649,0.00011995,-0.34031,-0.24357,-10.4904,-0.35945,0.48135,0.007471,0.015276,0.015254,0.39525,-1.5365,-1.0997,-47.3643,-0.33412,0.44743,0.0069444,0,4.515,0.68988,0.92952,0.92952,0.0063989,2.4676,1.9145,0.13878,143.1422,
3.3593,44.1206,27.0082,404.0755,0.12625,0.07893,0.98885,16.6514,10.2439,136.3788,-0.010022,0.013146,0.00022914,-0.33845,-0.24182,-10.4884,-0.35628,0.47811,0.0073235,0.015236,0.015188,0.39525,-1.5281,-1.0918,-47.3552,-0.33117,0.44441,0.0068073,0,4.515,0.68988,0.92952,0.92952,0.0063989,2.4676,1.9145,0.13872,143.1482,
3.3741,44.3661,27.1593,406.086,0.12649,0.079115,0.98881,16.6465,10.2404,136.2242,-0.015235,0.020149,0.00033568,-0.33458,-0.23857,-10.4867,-0.35012,0.47084,0.0071149,0.015066,0.014994,0.39525,-1.5106,-1.0771,-47.3473,-0.32544,0.43765,0.0066134,0,4.515,0.68988,0.92952,0.92952,0.0063989,2.4676,1.9145,0.13866,143.1542,
3.3888,44.6116,27.3103,408.0941,0.12683,0.079376,0.98874,16.6416,10.2369,136.0697,-0.020336,0.027016,0.00043872,-0.32876,-0.23387,-10.4851,-0.34105,0.45966,0.0068477,0.014771,0.014674,0.39525,-1.4843,-1.0559,-47.3404,-0.31702,0.42727,0.006365,0,4.515,0.68988,0.92952,0.92952,0.0063989,2.4676,1.9145,0.1386,143.1602,
3.403,44.848,27.4557,410.0264,0.12726,0.079696,0.98866,16.637,10.2336,135.9209,-0.025104,0.033449,0.00053388,-0.32137,-0.22802,-10.4839,-0.32969,0.44534,0.0065375,0.014369,0.014249,0.39525,-1.451,-1.0295,-47.3349,-0.30645,0.41395,0.0060768,0,4.515,0.68988,0.92952,0.92952,0.0063989,2.4676,1.9145,0.13854,143.166,
3.4173,45.0844,27.6011,411.9565,0.12777,0.080082,0.98857,16.6325,10.2304,135.772,-0.029693,0.039655,0.00062428,-0.31231,-0.22094,-10.4829,-0.31586,0.42768,0.0061787,0.013858,0.013715,0.39525,-1.4101,-0.99753,-47.3303,-0.2936,0.39754,0.0057432,0,4.515,0.68988,0.92952,0.92952,0.0063989,2.4676,1.9145,0.13848,143.1717,
3.4315,45.3207,27.7464,413.8845,0.12837,0.080531,0.98845,16.6281,10.2273,135.6232,-0.034069,0.045588,0.00070924,-0.30168,-0.21269,-10.4821,-0.29971,0.40687,0.0057746,0.01324,0.013076,0.39525,-1.3621,-0.96031,-47.3266,-0.27859,0.37819,0.0053676,0,4.515,0.68988,0.92952,0.92952,0.0063989,2.4676,1.9145,0.13843,143.1775,
3.4457,45.5569,27.8917,415.8105,0.12905,0.08104,0.98832,16.6239,10.2244,135.4745,-0.0382,0.051203,0.00078816,-0.28959,-0.20337,-10.4815,-0.2814,0.38311,0.0053287,0.012522,0.012338,0.39525,-1.3075,-0.9182,-47.324,-0.26157,0.35611,0.0049531,0,4.515,0.68988,0.92952,0.92952,0.0063989,2.4676,1.9145,0.13837,143.1833,
3.46,45.7948,28.0381,417.7486,0.12981,0.08161,0.98817,16.6198,10.2215,135.3246,-0.042084,0.056499,0.000861,-0.27602,-0.19296,-10.4811,-0.26093,0.35641,0.0048412,0.011704,0.011501,0.39525,-1.2462,-0.87122,-47.3222,-0.24254,0.33129,0.0045,0,4.515,0.68988,0.92952,0.92952,0.0063989,2.4676,1.9145,0.13831,143.1891,
3.4743,46.0327,28.1844,419.6846,0.13064,0.082233,0.98801,16.616,10.2188,135.1747,-0.045661,0.061395,0.00092661,-0.26121,-0.18164,-10.4809,-0.23862,0.32719,0.0043196,0.010798,0.010577,0.39525,-1.1793,-0.8201,-47.3213,-0.2218,0.30413,0.0040152,0,4.515,0.68988,0.92952,0.92952,0.0063989,2.4676,1.9145,0.13825,143.1949,
3.4886,46.2705,28.3306,421.6185,0.13154,0.082903,0.98784,16.6124,10.2163,135.0248,-0.048907,0.065856,0.00098452,-0.24526,-0.1695,-10.4809,-0.21467,0.29572,0.0037684,0.009811,0.0095742,0.39525,-1.1074,-0.76529,-47.3213,-0.19954,0.27487,0.0035028,0,4.515,0.68988,0.92952,0.92952,0.0063989,2.4676,1.9145,0.13819,143.2006,
3.5029,46.5083,28.4768,423.5502,0.1325,0.083618,0.98765,16.609,10.214,134.8749,-0.0518,0.069851,0.0010344,-0.22834,-0.15665,-10.4811,-0.18929,0.26225,0.003192,0.0087518,0.0085004,0.39525,-1.0309,-0.70726,-47.3221,-0.17595,0.24377,0.0029671,0,4.515,0.68988,0.92952,0.92952,0.0063989,2.4676,1.9145,0.13814,143.2064,
3.5177,46.7543,28.6281,425.5468,0.13355,0.084397,0.98744,16.6057,10.2118,134.7198,-0.054401,0.073468,0.0010771,-0.20994,-0.14271,-10.4815,-0.16175,0.22583,0.0025744,0.0075888,0.0073244,0.39525,-0.94787,-0.64435,-47.3238,-0.15035,0.20992,0.0023929,0,4.515,0.68988,0.92952,0.92952,0.0063989,2.4676,1.9145,0.13808,143.2124,
3.5326,47.0002,28.7794,427.5411,0.13464,0.085211,0.98722,16.6028,10.2098,134.5647,-0.056587,0.076534,0.0011106,-0.1908,-0.12826,-10.482,-0.13316,0.18792,0.0019403,0.0063681,0.0060924,0.39525,-0.86147,-0.57909,-47.3262,-0.12377,0.17468,0.0018036,0,4.515,0.68988,0.92952,0.92952,0.0063989,2.4676,1.9145,0.13802,143.2183,
3.5474,47.2461,28.9306,429.5331,0.13578,0.086054,0.98699,16.6001,10.208,134.4096,-0.058342,0.079029,0.0011345,-0.1711,-0.11341,-10.4827,-0.10376,0.14886,0.0012954,0.0051,0.0048152,0.39525,-0.7725,-0.51203,-47.3293,-0.096446,0.13837,0.0012041,0,4.515,0.68988,0.92952,0.92952,0.0063989,2.4676,1.9145,0.13796,143.2243,
3.5622,47.492,29.0818,431.5228,0.13695,0.086919,0.98676,16.5977,10.2064,134.2544,-0.059657,0.08094,0.0011489,-0.15099,-0.098287,-10.4835,-0.073809,0.10897,0.00064496,0.0037956,0.0035039,0.39525,-0.68174,-0.44377,-47.333,-0.068607,0.10129,0.0005995,0,4.515,0.68988,0.92952,0.92952,0.0063989,2.4676,1.9145,0.1379,143.2303,
3.578,47.7552,29.2436,433.6503,0.13822,0.087863,0.9865,16.5955,10.205,134.0883,-0.060571,0.082325,0.0011536,-0.12922,-0.081948,-10.4845,-0.041424,0.065744,-5.1287e-05,0.0023723,0.0020759,0.39525,-0.58344,-0.37,-47.3376,-0.038505,0.06111,-4.7672e-05,0,4.515,0.68988,0.92952,0.92952,0.0063989,2.4676,1.9145,0.13783,143.2366,
3.5939,48.0183,29.4054,435.7751,0.13952,0.088817,0.98623,16.5936,10.2038,133.9223,-0.060971,0.083024,0.0011473,-0.1074,-0.065603,-10.4856,-0.0090098,0.022382,-0.00074106,0.00094027,0.00064708,0.39525,-0.4849,-0.2962,-47.3426,-0.0083747,0.020804,-0.00068883,0,4.515,0.68988,0.92952,0.92952,0.0063989,2.4676,1.9145,0.13777,143.243,
3.6097,48.2814,29.5672,437.8972,0.14081,0.089772,0.98596,16.5921,10.2029,133.7561,-0.060859,0.083036,0.0011302,-0.085828,-0.049472,-10.4876,0.02313,-0.020708,-0.001418,0.00054626,0.00083599,0.39525,-0.38751,-0.22337,-47.3513,0.0215,-0.019248,-0.001318,0,4.515,0.68988,0.92952,0.92952,0.0063989,2.4676,1.9145,0.13771,143.2493,
3.6256,48.5444,29.7289,440.0167,0.14211,0.090722,0.98569,16.5909,10.2022,133.59,-0.06024,0.082371,0.0011024,-0.064791,-0.033755,-10.4908,0.0547,-0.063128,-0.0020759,0.0019589,0.0022554,0.39525,-0.29253,-0.1524,-47.3659,0.050845,-0.058678,-0.0019296,0,4.515,0.68988,0.92952,0.92952,0.0063989,2.4676,1.9145,0.13764,143.2557,
3.6438,48.8464,29.9146,442.4464,0.14357,0.091795,0.98537,16.5899,10.2018,133.3992,-0.058923,0.080788,0.001058,-0.041316,-0.016258,-10.4945,0.08987,-0.1105,-0.0028001,0.003569,0.0038607,0.39525,-0.18654,-0.073405,-47.3825,0.083535,-0.10271,-0.0026027,0,4.515,0.68988,0.92952,0.92952,0.0063989,2.4676,1.9145,0.13757,143.2629,
3.662,49.1483,30.1003,444.8727,0.145,0.092837,0.98507,16.5894,10.2016,133.2083,-0.056979,0.07836,0.0010008,-0.01882,0.00046256,-10.498,0.1235,-0.15593,-0.0034832,0.0051296,0.0054128,0.39525,-0.084972,0.0020885,-47.3984,0.1148,-0.14494,-0.0032376,0,4.515,0.68988,0.92952,0.92952,0.0063989,2.4676,1.9145,0.1375,143.2702,
3.6802,49.4503,30.286,447.2954,0.14637,0.093839,0.98477,16.5892,10.2018,133.0174,-0.054439,0.075127,0.00093151,0.0024443,0.016218,-10.5013,0.15521,-0.19888,-0.0041172,0.0066206,0.0068922,0.39525,0.011036,0.073227,-47.4133,0.14427,-0.18486,-0.003827,0,4.515,0.68988,0.92952,0.92952,0.0063989,2.4676,1.9145,0.13743,143.2774,
3.6984,49.7522,30.4717,449.7147,0.14768,0.09479,0.98448,16.5894,10.2022,132.8264,-0.051343,0.071138,0.0008512,0.022246,0.030839,-10.5043,0.18464,-0.23889,-0.0046954,0.0080242,0.0082815,0.39525,0.10044,0.13924,-47.4268,0.17162,-0.22205,-0.0043645,0,4.515,0.68988,0.92952,0.92952,0.0063989,2.4676,1.9145,0.13736,143.2846,
3.7164,50.05,30.6548,452.0973,0.1489,0.095669,0.98421,16.59,10.2029,132.638,-0.047786,0.06652,0.00076226,0.040139,0.043998,-10.5068,0.21113,-0.27504,-0.0052049,0.0093072,0.0095477,0.39525,0.18123,0.19865,-47.4384,0.19625,-0.25566,-0.0048381,0,4.515,0.68988,0.92952,0.92952,0.0063989,2.4676,1.9145,0.13728,143.2918,
3.7343,50.3478,30.838,454.4765,0.15002,0.09648,0.98396,16.5909,10.2038,132.4496,-0.04378,0.061286,0.00066476,0.056227,0.055771,-10.509,0.23482,-0.30754,-0.0056489,0.010475,0.010697,0.39525,0.25386,0.25181,-47.4479,0.21827,-0.28586,-0.0052507,0,4.515,0.68988,0.92952,0.92952,0.0063989,2.4676,1.9145,0.13721,143.2989,
3.7523,50.6456,31.0211,456.8524,0.15106,0.097217,0.98373,16.592,10.2049,132.2611,-0.039374,0.055503,0.00055988,0.070355,0.066048,-10.5106,0.2555,-0.33605,-0.006023,0.011515,0.011716,0.39525,0.31765,0.29821,-47.4552,0.23749,-0.31236,-0.0055984,0,4.515,0.68988,0.92952,0.92952,0.0063989,2.4676,1.9145,0.13714,143.306,
